# Wavelength(nm)  Flambda(ergs/cm^s/s/nm)
270.50 0.3917127
271.50 0.3105676
272.50 0.2989708
273.50 0.3428381
274.50 0.2122715
275.50 0.2775076
276.50 0.3529484
277.50 0.3783699
278.50 0.2514055
279.50 0.07491731
280.50 0.1036137
281.50 0.3695072
282.50 0.4604105
283.50 0.4381283
284.50 0.3529391
285.50 0.1814899
286.50 0.4340774
287.50 0.4819937
288.50 0.4458202
289.50 0.480814
291.00 0.5690121
293.00 0.5308288
295.00 0.5186921
297.00 0.5332509
299.00 0.5404729
301.00 0.5567111
303.00 0.5612466
305.00 0.5902756
307.00 0.5841117
309.00 0.5721651
311.00 0.5879469
313.00 0.5875337
315.00 0.5649522
317.00 0.5995289
319.00 0.5609316
321.00 0.6085286
323.00 0.5666076
325.00 0.6471123
327.00 0.7129836
329.00 0.7037377
331.00 0.7076827
333.00 0.7014007
335.00 0.6966732
337.00 0.5994186
339.00 0.6698434
341.00 0.6683146
343.00 0.7022863
345.00 0.696973
347.00 0.7159115
349.00 0.7417618
351.00 0.7577272
353.00 0.7277556
355.00 0.7937714
357.00 0.7081781
359.00 0.6829045
361.00 0.7248519
363.00 0.7346263
364.00 0.7497171
365.00 0.7923672
367.00 0.7895756
369.00 0.748464
371.00 0.7849302
373.00 0.7037734
375.00 0.7632411
377.00 0.8370656
379.00 0.8740678
381.00 0.9121744
383.00 0.7084545
385.00 0.9145005
387.00 0.9023584
389.00 0.8398048
391.00 0.9184638
393.00 0.6271969
395.00 0.8990256
397.00 0.6852546
399.00 0.9961376
401.00 1.02268
403.00 1.025473
405.00 1.006806
407.00 0.9890684
409.00 1.029716
411.00 0.961122
413.00 1.030912
415.00 1.031095
417.00 1.041309
419.00 1.011399
421.00 1.008181
423.00 0.977431
425.00 0.9888309
427.00 0.9658135
429.00 0.9256089
431.00 0.8251625
433.00 0.9802366
435.00 0.9310381
437.00 1.018368
439.00 0.9884299
441.00 1.012614
443.00 1.041443
445.00 1.032616
447.00 1.040981
449.00 1.049948
451.00 1.077989
453.00 1.039944
455.00 1.04781
457.00 1.075243
459.00 1.054988
461.00 1.060559
463.00 1.055717
465.00 1.055233
467.00 1.067135
469.00 1.061205
471.00 1.043147
473.00 1.055792
475.00 1.057007
477.00 1.055818
479.00 1.048823
481.00 1.049501
483.00 1.044313
485.00 1.005951
487.00 0.8995442
489.00 1.017492
491.00 1.022168
493.00 1.003855
495.00 1.01404
497.00 1.027379
499.00 0.9943344
501.00 0.9764628
503.00 1.006473
505.00 0.9953848
507.00 1.008135
509.00 0.9943156
511.00 0.9954449
513.00 0.9875873
515.00 0.9687371
517.00 0.931218
519.00 0.9359804
521.00 0.9536
523.00 0.9605859
525.00 0.9798956
527.00 0.934323
529.00 0.9683756
531.00 0.9726546
533.00 0.9413105
535.00 0.9605107
537.00 0.9515065
539.00 0.9487562
541.00 0.9334824
543.00 0.9422775
545.00 0.9403847
547.00 0.9377179
549.00 0.939894
551.00 0.9367419
553.00 0.9359009
555.00 0.9374403
557.00 0.9206706
559.00 0.9167891
561.00 0.9159729
563.00 0.9221419
565.00 0.9201846
567.00 0.9095157
569.00 0.9123374
571.00 0.9023394
573.00 0.911274
575.00 0.9035956
577.00 0.9014307
579.00 0.8964482
581.00 0.8947387
583.00 0.8930209
585.00 0.88526
587.00 0.882061
589.00 0.8606696
591.00 0.8748276
593.00 0.871517
595.00 0.8694305
597.00 0.865265
599.00 0.8614691
601.00 0.8555943
603.00 0.8513058
605.00 0.8531438
607.00 0.8481026
609.00 0.8434709
611.00 0.838483
613.00 0.822714
615.00 0.8274386
617.00 0.8181357
619.00 0.82414
621.00 0.8211177
623.00 0.8136099
625.00 0.8036627
627.00 0.8114053
629.00 0.8081986
631.00 0.7984159
633.00 0.7968933
635.00 0.7971744
637.00 0.7935809
639.00 0.7897855
641.00 0.7786987
643.00 0.7778652
645.00 0.7747937
647.00 0.771459
649.00 0.7622563
651.00 0.7646801
653.00 0.7582071
655.00 0.7166711
656.10 0.6089265
659.00 0.7377351
661.00 0.7487214
663.00 0.7475551
665.00 0.7454538
667.00 0.7400763
669.00 0.7403294
671.00 0.7352696
673.00 0.7333822
675.00 0.7294409
677.00 0.7262701
679.00 0.7229741
681.00 0.7191799
683.00 0.7167016
685.00 0.7111688
687.00 0.7094645
689.00 0.7070184
691.00 0.70319
693.00 0.7003614
695.00 0.6968624
697.00 0.6940196
699.00 0.6907521
701.00 0.6852945
703.00 0.6836924
705.00 0.6811698
707.00 0.6775756
709.00 0.6742419
711.00 0.6715238
713.00 0.6660555
715.00 0.6629948
717.00 0.6608123
719.00 0.6547608
721.00 0.6530394
723.00 0.6522021
725.00 0.6497827
727.00 0.6466658
729.00 0.6408479
731.00 0.6396691
733.00 0.6363723
735.00 0.6347952
737.00 0.6322366
739.00 0.626493
741.00 0.6176289
743.00 0.6206137
745.00 0.6186725
747.00 0.6171139
749.00 0.6126127
751.00 0.6091032
753.00 0.6080162
755.00 0.6059455
757.00 0.6022664
759.00 0.5988887
761.00 0.5962338
763.00 0.5940349
765.00 0.5913547
767.00 0.5840422
769.00 0.5858141
771.00 0.5808248
773.00 0.5800647
775.00 0.5753826
777.00 0.5741919
779.00 0.5723539
781.00 0.5698309
783.00 0.565035
785.00 0.5627132
787.00 0.5621541
789.00 0.5595409
791.00 0.556338
793.00 0.5503548
795.00 0.548376
797.00 0.5490214
799.00 0.5465834
801.00 0.5414925
803.00 0.5407632
805.00 0.5367184
807.00 0.5362294
809.00 0.531912
811.00 0.531113
813.00 0.5289534
815.00 0.5262949
817.00 0.5237757
819.00 0.5165507
821.00 0.5169127
823.00 0.5125117
825.00 0.5128509
827.00 0.5116312
829.00 0.5090705
831.00 0.5056716
833.00 0.4993389
835.00 0.501057
837.00 0.4989401
839.00 0.4926658
841.00 0.4941589
843.00 0.4907495
845.00 0.4888105
847.00 0.483894
849.00 0.4822263
851.00 0.4671415
853.00 0.4781432
855.00 0.4379843
857.00 0.4771695
859.00 0.4718805
861.00 0.4687066
863.00 0.4709377
865.00 0.4665939
867.00 0.4303963
869.00 0.4594724
871.00 0.461714
873.00 0.4594151
875.00 0.448722
877.00 0.4551678
879.00 0.453188
881.00 0.4476396
883.00 0.4467872
885.00 0.4450666
887.00 0.4338257
889.00 0.4435046
891.00 0.4414427
893.00 0.4382523
895.00 0.4365631
897.00 0.4353495
899.00 0.4335987
901.00 0.4172026
903.00 0.4264227
905.00 0.4280013
907.00 0.4235523
909.00 0.4177765
911.00 0.4198585
913.00 0.41968
915.00 0.4179861
917.00 0.4160527
919.00 0.4145274
921.00 0.4098321
923.00 0.3949566
925.00 0.4052473
927.00 0.4058575
929.00 0.4048269
931.00 0.403211
933.00 0.4011171
935.00 0.3990749
937.00 0.3973194
939.00 0.3958509
941.00 0.3887182
943.00 0.3919202
945.00 0.389564
947.00 0.3887661
949.00 0.3871856
951.00 0.3851655
953.00 0.3823717
955.00 0.365692
957.00 0.3790313
959.00 0.3784702
961.00 0.3761537
963.00 0.3735596
965.00 0.3724689
967.00 0.3701069
969.00 0.3698911
971.00 0.3682494
973.00 0.366649
975.00 0.3639969
977.00 0.3630446
979.00 0.3615174
981.00 0.3599429
983.00 0.3584909
985.00 0.3569169
987.00 0.3548608
989.00 0.3530263
991.00 0.3517617
993.00 0.3506664
995.00 0.3491665
997.00 0.3476538
999.00 0.3460667
1002.50 0.341567
1007.50 0.333912
1012.50 0.335597
1017.50 0.3316266
1022.50 0.3284259
1027.50 0.3251034
1032.50 0.3209408
1037.50 0.3176661
1042.50 0.3146229
1047.50 0.3104256
1052.50 0.307837
1057.50 0.3041637
1062.50 0.3002242
1067.50 0.2950296
1072.50 0.2938976
1077.50 0.2901821
1082.50 0.2865815
1087.50 0.2842562
1092.50 0.2750003
1097.50 0.2777587
1102.50 0.2766098
1107.50 0.2741
1112.50 0.2709936
1117.50 0.268013
1122.50 0.2656854
1127.50 0.2619094
1132.50 0.2597802
1137.50 0.257308
1142.50 0.2537955
1147.50 0.2524872
1152.50 0.2499596
1157.50 0.2472223
1162.50 0.2435451
1167.50 0.2417298
1172.50 0.2401346
1177.50 0.2363221
1182.50 0.2339385
1187.50 0.2313188
1192.50 0.2308303
1197.50 0.2259984
1202.50 0.2251947
1207.50 0.2226988
1212.50 0.2215573
1217.50 0.2198269
1222.50 0.2176923
1227.50 0.2151782
1232.50 0.2134931
1237.50 0.2114064
1242.50 0.209391
1247.50 0.207506
1252.50 0.2054801
1257.50 0.2034752
1262.50 0.2015136
1267.50 0.1996106
1272.50 0.1979083
1277.50 0.1955816
1282.50 0.1851705
1287.50 0.1920602
1292.50 0.1905729
1297.50 0.1889733
1302.50 0.1871357
1307.50 0.1855608
1312.50 0.1833386
1317.50 0.1816234
1322.50 0.180595
1327.50 0.1786913
1332.50 0.1772649
1337.50 0.1756255
1342.50 0.1742653
1347.50 0.1726907
1352.50 0.1711781
1357.50 0.1693897
1362.50 0.1681115
1367.50 0.1666282
1372.50 0.1650233
1377.50 0.1637204
1382.50 0.1623636
1387.50 0.161037
1392.50 0.1596262
1397.50 0.1582519
1402.50 0.1567012
1407.50 0.155566
1412.50 0.1539244
1417.50 0.1529669
1422.50 0.1511311
1427.50 0.1496503
1432.50 0.1489912
1437.50 0.1479039
1442.50 0.1453941
1447.50 0.1453824
1452.50 0.1432683
1457.00 0.1426515
1462.00 0.1417555
1467.50 0.1405011
1472.50 0.1389777
1477.50 0.1379123
1482.50 0.1369143
1487.50 0.1347798
1492.50 0.1348885
1497.50 0.1334632
1502.50 0.1309879
1507.50 0.1303392
1512.50 0.1302659
1517.50 0.129196
1522.50 0.1277664
1527.50 0.1268006
1532.50 0.1257026
1537.50 0.1246898
1542.50 0.1235883
1547.50 0.122741
1552.50 0.1215254
1557.50 0.120094
1562.50 0.1198619
1567.50 0.1181293
1572.50 0.1168787
1577.50 0.1156985
1582.50 0.1154367
1587.50 0.1123617
1592.50 0.1133575
1597.50 0.1129406
1605.00 0.1110336
1615.00 0.1081683
1625.00 0.1077414
1635.00 0.104828
1645.00 0.1017131
1655.00 0.1015557
1665.00 0.09950409
1675.00 0.09645528
1685.00 0.09324021
1695.00 0.09360752
1705.00 0.09156627
1715.00 0.08972531
1725.00 0.08777926
1735.00 0.08333984
1745.00 0.08409555
1755.00 0.08285827
1765.00 0.08121362
1775.00 0.0796502
1785.00 0.078128
1795.00 0.07662343
1805.00 0.07504927
1815.00 0.07118457
1825.00 0.07172416
1835.00 0.07084
1845.00 0.06936828
1855.00 0.06820363
1865.00 0.06668734
1875.00 0.06207936
1885.00 0.06422143
1895.00 0.06300567
1905.00 0.06217988
1915.00 0.06100959
1925.00 0.05991798
1935.00 0.05865657
1945.00 0.05537421
1955.00 0.05658128
1965.00 0.05569006
1975.00 0.05458594
1985.00 0.05374257
1995.00 0.05279931
2005.00 0.05191821
2015.00 0.05103764
2025.00 0.05008249
2035.00 0.04914886
2045.00 0.04841333
2055.00 0.04757027
2065.00 0.04665525
2075.00 0.04592509
2085.00 0.04515748
2095.00 0.04432467
2105.00 0.04364158
2115.00 0.04290124
2125.00 0.04217929
2135.00 0.04148569
2145.00 0.04080789
2155.00 0.04007832
2165.00 0.03788295
2175.00 0.03867556
2185.00 0.03811177
2195.00 0.03756718
2205.00 0.03687335
2215.00 0.03634288
2225.00 0.03575738
2235.00 0.0351867
2245.00 0.03462332
2255.00 0.0340578
2265.00 0.03352568
2275.00 0.03299945
2285.00 0.03248879
2295.00 0.0319899
