# Wavelength(nm)  Flambda(ergs/cm^s/s/nm)
270.50 0.1856212
271.50 0.1213857
272.50 0.07897025
273.50 0.120028
274.50 0.06503987
275.50 0.104028
276.50 0.149556
277.50 0.1500308
278.50 0.0719608
279.50 0.02559929
280.50 0.03238961
281.50 0.1185455
282.50 0.1754192
283.50 0.1396906
284.50 0.06469402
285.50 0.02904554
286.50 0.1104018
287.50 0.1973742
288.50 0.1853724
289.50 0.2493123
291.00 0.3324322
293.00 0.2914102
295.00 0.2589518
297.00 0.2497609
299.00 0.2595162
301.00 0.2498202
303.00 0.2755613
305.00 0.2965416
307.00 0.312151
309.00 0.2772459
311.00 0.3318454
313.00 0.3064074
315.00 0.2887934
317.00 0.3269238
319.00 0.2999436
321.00 0.3345242
323.00 0.3067893
325.00 0.4216125
327.00 0.5024295
329.00 0.4858952
331.00 0.4445557
333.00 0.4485303
335.00 0.4335758
337.00 0.2856068
339.00 0.363982
341.00 0.3767528
343.00 0.4340511
345.00 0.4247675
347.00 0.4634928
349.00 0.5238425
351.00 0.563539
353.00 0.5181495
355.00 0.6143235
357.00 0.4499083
359.00 0.4253075
361.00 0.5186982
363.00 0.5240088
364.00 0.5617614
365.00 0.5916432
367.00 0.6383023
369.00 0.5851875
371.00 0.6062736
373.00 0.4013911
375.00 0.4649029
377.00 0.6169135
379.00 0.6392929
381.00 0.6225007
383.00 0.3491263
385.00 0.5398268
387.00 0.5005059
389.00 0.5407373
391.00 0.6264264
393.00 0.34584
395.00 0.6213197
397.00 0.4405793
399.00 0.7916873
401.00 0.8327702
403.00 0.8236445
405.00 0.7897214
407.00 0.7577623
409.00 0.8750606
411.00 0.8569555
413.00 0.8495983
415.00 0.8257766
417.00 0.8631908
419.00 0.8022647
421.00 0.7995421
423.00 0.7564715
425.00 0.7487749
427.00 0.6924794
429.00 0.6405012
431.00 0.5192432
433.00 0.8017591
435.00 0.7775121
437.00 0.8113752
439.00 0.7536862
441.00 0.8288215
443.00 0.9265834
445.00 0.9152403
447.00 0.9525185
449.00 0.970831
451.00 1.028648
453.00 0.9637278
455.00 0.9953749
457.00 1.03441
459.00 1.004271
461.00 1.014788
463.00 1.019315
465.00 1.017941
467.00 1.041929
469.00 1.034103
471.00 1.019827
473.00 1.035384
475.00 1.040913
477.00 1.038677
479.00 1.035288
481.00 1.040604
483.00 1.035622
485.00 1.014148
487.00 0.9317565
489.00 1.005878
491.00 1.015436
493.00 0.9922984
495.00 1.011641
497.00 1.037444
499.00 0.9891701
501.00 0.9623431
503.00 1.005577
505.00 0.9919081
507.00 1.020067
509.00 0.9970806
511.00 1.001312
513.00 0.9914544
515.00 0.9617963
517.00 0.8878624
519.00 0.9086147
521.00 0.9568152
523.00 0.9828423
525.00 1.015944
527.00 0.9356155
529.00 1.010885
531.00 1.031941
533.00 0.9679808
535.00 1.011322
537.00 0.9984964
539.00 0.9966376
541.00 0.9789725
543.00 0.9878772
545.00 0.9928214
547.00 0.9982417
549.00 1.006995
551.00 1.001653
553.00 1.008428
555.00 1.013964
557.00 0.9884412
559.00 0.9820676
561.00 0.9892326
563.00 1.003197
565.00 1.006747
567.00 0.991428
569.00 0.9994673
571.00 0.9810079
573.00 1.007929
575.00 0.9969928
577.00 0.9975245
579.00 0.9894082
581.00 0.9936449
583.00 0.9966425
585.00 0.9846572
587.00 0.9836873
589.00 0.9246641
591.00 0.9760052
593.00 0.975249
595.00 0.975975
597.00 0.9731584
599.00 0.9703178
601.00 0.9603467
603.00 0.9599456
605.00 0.9683002
607.00 0.9600472
609.00 0.9552944
611.00 0.949491
613.00 0.9237245
615.00 0.9408668
617.00 0.9183231
619.00 0.9377603
621.00 0.9366805
623.00 0.9242464
625.00 0.9128124
627.00 0.9291889
629.00 0.9269041
631.00 0.9120579
633.00 0.9156371
635.00 0.919224
637.00 0.9171969
639.00 0.9118321
641.00 0.8969969
643.00 0.9007303
645.00 0.8974561
647.00 0.8929582
649.00 0.882387
651.00 0.8929519
653.00 0.8929912
655.00 0.8614617
656.10 0.7687571
659.00 0.8711732
661.00 0.8827333
663.00 0.8813686
665.00 0.8782418
667.00 0.8693184
669.00 0.8758554
671.00 0.8667511
673.00 0.8693588
675.00 0.863681
677.00 0.8620649
679.00 0.8592274
681.00 0.8548971
683.00 0.8547724
685.00 0.8456279
687.00 0.8459686
689.00 0.8460654
691.00 0.8412496
693.00 0.8391705
695.00 0.8341406
697.00 0.8337465
699.00 0.8296996
701.00 0.8222507
703.00 0.8231349
705.00 0.821435
707.00 0.8167798
709.00 0.8133303
711.00 0.8131319
713.00 0.8038786
715.00 0.800143
717.00 0.8010126
719.00 0.789342
721.00 0.7909252
723.00 0.7937235
725.00 0.7916768
727.00 0.7886799
729.00 0.7795547
731.00 0.7808618
733.00 0.777418
735.00 0.7772436
737.00 0.7759929
739.00 0.7669143
741.00 0.7539115
743.00 0.762293
745.00 0.7605247
747.00 0.7603788
749.00 0.7546538
751.00 0.7511723
753.00 0.7515381
755.00 0.7506727
757.00 0.7459876
759.00 0.7417137
761.00 0.7397464
763.00 0.7382318
765.00 0.736454
767.00 0.723174
769.00 0.7314968
771.00 0.722474
773.00 0.723563
775.00 0.7170833
777.00 0.7214622
779.00 0.7169024
781.00 0.7156269
783.00 0.7083715
785.00 0.706426
787.00 0.7081508
789.00 0.7049789
791.00 0.6999097
793.00 0.6917557
795.00 0.6891621
797.00 0.6939028
799.00 0.6914302
801.00 0.6838693
803.00 0.6847364
805.00 0.6787673
807.00 0.6803919
809.00 0.6731643
811.00 0.6745773
813.00 0.6729501
815.00 0.670125
817.00 0.6675125
819.00 0.6554082
821.00 0.6577139
823.00 0.6527053
825.00 0.6553649
827.00 0.655534
829.00 0.6523332
831.00 0.6478404
833.00 0.6380555
835.00 0.6432075
837.00 0.6413212
839.00 0.6299171
841.00 0.6367112
843.00 0.6300512
845.00 0.6313986
847.00 0.6239948
849.00 0.6207111
851.00 0.5993921
853.00 0.615896
855.00 0.5537702
857.00 0.6178612
859.00 0.6126326
861.00 0.6092012
863.00 0.6097414
865.00 0.6057019
867.00 0.5497152
869.00 0.5926389
871.00 0.5999303
873.00 0.5986015
875.00 0.59132
877.00 0.5948921
879.00 0.5907351
881.00 0.5808792
883.00 0.5819467
885.00 0.583017
887.00 0.5761647
889.00 0.5819625
891.00 0.5802986
893.00 0.5754783
895.00 0.5720523
897.00 0.5719569
899.00 0.571043
901.00 0.5563901
903.00 0.5652935
905.00 0.5653209
907.00 0.5611876
909.00 0.5520661
911.00 0.5549433
913.00 0.5542391
915.00 0.5532623
917.00 0.5511321
919.00 0.550243
921.00 0.5449474
923.00 0.5403641
925.00 0.5397263
927.00 0.5396799
929.00 0.538527
931.00 0.5374285
933.00 0.5348639
935.00 0.5319239
937.00 0.5288166
939.00 0.5290075
941.00 0.5197033
943.00 0.5247703
945.00 0.5205658
947.00 0.5210084
949.00 0.5194976
951.00 0.5171486
953.00 0.5150199
955.00 0.507361
957.00 0.5099507
959.00 0.5096839
961.00 0.5067906
963.00 0.5039012
965.00 0.5001943
967.00 0.4992364
969.00 0.4996908
971.00 0.4967622
973.00 0.4951223
975.00 0.4916565
977.00 0.4910239
979.00 0.4886768
981.00 0.4879048
983.00 0.4864393
985.00 0.4848344
987.00 0.4817192
989.00 0.4797071
991.00 0.4785591
993.00 0.4777502
995.00 0.4759325
997.00 0.4742336
999.00 0.4722508
1002.50 0.4687952
1007.50 0.4624208
1012.50 0.4601318
1017.50 0.4550199
1022.50 0.451251
1027.50 0.4477369
1032.50 0.4417476
1037.50 0.4379784
1042.50 0.4353003
1047.50 0.430477
1052.50 0.4273197
1057.50 0.4223932
1062.50 0.4178125
1067.50 0.4125965
1072.50 0.4109589
1077.50 0.4052507
1082.50 0.4002282
1087.50 0.3980801
1092.50 0.3939653
1097.50 0.3912685
1102.50 0.3896746
1107.50 0.3868405
1112.50 0.3828512
1117.50 0.3789919
1122.50 0.3765707
1127.50 0.3711908
1132.50 0.3694591
1137.50 0.3654943
1142.50 0.3607192
1147.50 0.3604716
1152.50 0.3574638
1157.50 0.3537202
1162.50 0.3481124
1167.50 0.3468578
1172.50 0.3454717
1177.50 0.3405275
1182.50 0.3366259
1187.50 0.3331429
1192.50 0.3339453
1197.50 0.3257073
1202.50 0.3261149
1207.50 0.3229685
1212.50 0.3220321
1217.50 0.3203188
1222.50 0.3176131
1227.50 0.3141434
1232.50 0.3124141
1237.50 0.3097733
1242.50 0.3071692
1247.50 0.3050244
1252.50 0.3024435
1257.50 0.30012
1262.50 0.297595
1267.50 0.2950293
1272.50 0.2931922
1277.50 0.2910156
1282.50 0.283221
1287.50 0.2862493
1292.50 0.2838764
1297.50 0.2822108
1302.50 0.2797617
1307.50 0.2779481
1312.50 0.2742945
1317.50 0.2724925
1322.50 0.2716666
1327.50 0.2686379
1332.50 0.2672258
1337.50 0.2652236
1342.50 0.2638349
1347.50 0.2618175
1352.50 0.2599753
1357.50 0.2572255
1362.50 0.2556145
1367.50 0.2541235
1372.50 0.2524652
1377.50 0.2505566
1382.50 0.2489532
1387.50 0.246969
1392.50 0.2455454
1397.50 0.2438061
1402.50 0.2414201
1407.50 0.2404767
1412.50 0.2381572
1417.50 0.2373164
1422.50 0.2344142
1427.50 0.2320977
1432.50 0.2321076
1437.50 0.2310459
1442.50 0.2272545
1447.50 0.2278509
1452.50 0.224936
1457.00 0.2238855
1462.00 0.2234977
1467.50 0.221769
1472.50 0.2193553
1477.50 0.2184268
1482.50 0.2170697
1487.50 0.2136286
1492.50 0.214848
1497.50 0.2126377
1502.50 0.2076202
1507.50 0.2076517
1512.50 0.2089911
1517.50 0.2077
1522.50 0.205502
1527.50 0.204493
1532.50 0.2032033
1537.50 0.2019414
1542.50 0.2009889
1547.50 0.1997221
1552.50 0.1978057
1557.50 0.196131
1562.50 0.1955631
1567.50 0.1933251
1572.50 0.1919617
1577.50 0.1885314
1582.50 0.1891293
1587.50 0.1854118
1592.50 0.1868461
1597.50 0.1856391
1605.00 0.1835334
1615.00 0.1800861
1625.00 0.1782637
1635.00 0.1746399
1645.00 0.1705703
1655.00 0.1686928
1665.00 0.1653029
1675.00 0.1611406
1685.00 0.1572364
1695.00 0.1558446
1705.00 0.1522409
1715.00 0.1491409
1725.00 0.1462897
1735.00 0.1416864
1745.00 0.1406048
1755.00 0.1382015
1765.00 0.1355244
1775.00 0.1328895
1785.00 0.1304644
1795.00 0.1279651
1805.00 0.1254581
1815.00 0.1214356
1825.00 0.1204777
1835.00 0.1184653
1845.00 0.1158423
1855.00 0.1140895
1865.00 0.1116359
1875.00 0.1060285
1885.00 0.1076897
1895.00 0.1051045
1905.00 0.1039941
1915.00 0.1019807
1925.00 0.1002274
1935.00 0.09815895
1945.00 0.09470631
1955.00 0.094797
1965.00 0.09315677
1975.00 0.09117271
1985.00 0.08981361
1995.00 0.08834774
2005.00 0.08699196
2015.00 0.08554068
2025.00 0.08387833
2035.00 0.08229969
2045.00 0.08116676
2055.00 0.07974887
2065.00 0.07816338
2075.00 0.07697004
2085.00 0.07572853
2095.00 0.07425785
2105.00 0.07321835
2115.00 0.07197928
2125.00 0.07077614
2135.00 0.0696268
2145.00 0.06849421
2155.00 0.06737344
2165.00 0.06510792
2175.00 0.0650714
2185.00 0.06397392
2195.00 0.06307768
2205.00 0.06182593
2215.00 0.06106198
2225.00 0.0600218
2235.00 0.05908077
2245.00 0.05815269
2255.00 0.05723868
2265.00 0.05630508
2275.00 0.05546856
2285.00 0.05452942
2295.00 0.05335743
