# Wavelength(nm)  Flambda(ergs/cm^s/s/nm)
270.50 0.03311054
271.50 0.01648488
272.50 0.00862732
273.50 0.01440673
274.50 0.01170515
275.50 0.0165982
276.50 0.02807117
277.50 0.02825932
278.50 0.01481681
279.50 0.008826586
280.50 0.009860072
281.50 0.01713071
282.50 0.01650027
283.50 0.01171376
284.50 0.008150575
285.50 0.004599124
286.50 0.01067884
287.50 0.01519905
288.50 0.02469475
289.50 0.0434653
291.00 0.1080239
293.00 0.08278257
295.00 0.04901897
297.00 0.04575155
299.00 0.04542955
301.00 0.04021609
303.00 0.05359086
305.00 0.05608183
307.00 0.08125548
309.00 0.06401854
311.00 0.1151682
313.00 0.09868429
315.00 0.1165789
317.00 0.1476017
319.00 0.1199591
321.00 0.1306926
323.00 0.120514
325.00 0.2109563
327.00 0.2756438
329.00 0.2737804
331.00 0.2181374
333.00 0.2165277
335.00 0.1953518
337.00 0.09110436
339.00 0.1249409
341.00 0.1326894
343.00 0.1731641
345.00 0.1658851
347.00 0.1714305
349.00 0.2392488
351.00 0.3090139
353.00 0.2818218
355.00 0.3851613
357.00 0.1732257
359.00 0.175887
361.00 0.2579292
363.00 0.2873814
364.00 0.3497435
365.00 0.3722083
367.00 0.4602287
369.00 0.3546127
371.00 0.2990578
373.00 0.128451
375.00 0.1621831
377.00 0.3485062
379.00 0.3848581
381.00 0.3382034
383.00 0.1240278
385.00 0.2527258
387.00 0.2266374
389.00 0.2643517
391.00 0.3790267
393.00 0.1479446
395.00 0.3580868
397.00 0.2334582
399.00 0.6063639
401.00 0.6793144
403.00 0.6096282
405.00 0.5953331
407.00 0.53322
409.00 0.7284688
411.00 0.5993488
413.00 0.624367
415.00 0.564315
417.00 0.6145776
419.00 0.5937024
421.00 0.5699268
423.00 0.4925545
425.00 0.55872
427.00 0.5097415
429.00 0.4998804
431.00 0.4492266
433.00 0.6973746
435.00 0.724418
437.00 0.746464
439.00 0.6481786
441.00 0.6963146
443.00 0.8200226
445.00 0.8177901
447.00 0.8856898
449.00 0.9193165
451.00 1.02845
453.00 0.9008142
455.00 0.9797303
457.00 1.031042
459.00 0.9980043
461.00 1.0113
463.00 1.029971
465.00 1.011568
467.00 1.068394
469.00 1.048837
471.00 1.022011
473.00 1.033614
475.00 1.029424
477.00 0.9941471
479.00 1.016129
481.00 1.075736
483.00 1.063669
485.00 1.066109
487.00 0.9955203
489.00 1.033402
491.00 1.05243
493.00 0.9999269
495.00 1.016144
497.00 1.032069
499.00 0.9486859
501.00 0.885871
503.00 0.934813
505.00 0.8779353
507.00 0.8852137
509.00 0.852973
511.00 0.8419765
513.00 0.816004
515.00 0.7640797
517.00 0.7128153
519.00 0.7845726
521.00 0.8553103
523.00 1.046963
525.00 1.116851
527.00 0.9485336
529.00 1.114802
531.00 1.174772
533.00 1.039082
535.00 1.132123
537.00 1.099963
539.00 1.100543
541.00 1.075959
543.00 1.072811
545.00 1.085836
547.00 1.138214
549.00 1.154853
551.00 1.125282
553.00 1.173863
555.00 1.184543
557.00 1.146879
559.00 1.125015
561.00 1.158288
563.00 1.188228
565.00 1.204945
567.00 1.180259
569.00 1.195534
571.00 1.159354
573.00 1.214607
575.00 1.207175
577.00 1.210716
579.00 1.187877
581.00 1.209877
583.00 1.221964
585.00 1.201254
587.00 1.201009
589.00 0.9622772
591.00 1.185309
593.00 1.198517
595.00 1.201052
597.00 1.205826
599.00 1.204963
601.00 1.189882
603.00 1.199706
605.00 1.211185
607.00 1.198876
609.00 1.189752
611.00 1.18694
613.00 1.136796
615.00 1.183103
617.00 1.119337
619.00 1.182422
621.00 1.181495
623.00 1.162211
625.00 1.140803
627.00 1.169856
629.00 1.177615
631.00 1.158355
633.00 1.167305
635.00 1.179122
637.00 1.180142
639.00 1.173913
641.00 1.153353
643.00 1.159116
645.00 1.152408
647.00 1.146226
649.00 1.132365
651.00 1.162239
653.00 1.174665
655.00 1.150497
656.10 1.099172
659.00 1.149914
661.00 1.16261
663.00 1.164082
665.00 1.160442
667.00 1.147444
669.00 1.163257
671.00 1.145674
673.00 1.160237
675.00 1.14665
677.00 1.153291
679.00 1.149723
681.00 1.144999
683.00 1.150555
685.00 1.136903
687.00 1.136948
689.00 1.141903
691.00 1.137427
693.00 1.133674
695.00 1.127118
697.00 1.132986
699.00 1.123517
701.00 1.118545
703.00 1.122728
705.00 1.123392
707.00 1.115523
709.00 1.113158
711.00 1.11493
713.00 1.104655
715.00 1.093867
717.00 1.104962
719.00 1.083994
721.00 1.084329
723.00 1.099647
725.00 1.092364
727.00 1.096363
729.00 1.086833
731.00 1.088194
733.00 1.080485
735.00 1.079632
737.00 1.085991
739.00 1.075048
741.00 1.059022
743.00 1.071808
745.00 1.069189
747.00 1.070183
749.00 1.065032
751.00 1.06324
753.00 1.066752
755.00 1.067129
757.00 1.062111
759.00 1.055911
761.00 1.056162
763.00 1.055726
765.00 1.054212
767.00 1.02528
769.00 1.049739
771.00 1.031239
773.00 1.041025
775.00 1.030722
777.00 1.043
779.00 1.036719
781.00 1.036852
783.00 1.025962
785.00 1.025268
787.00 1.030488
789.00 1.026461
791.00 1.016819
793.00 1.009556
795.00 1.003711
797.00 1.015939
799.00 1.012264
801.00 1.003142
803.00 1.004444
805.00 0.9960872
807.00 0.9996921
809.00 0.9911495
811.00 0.9949268
813.00 0.995025
815.00 0.9922034
817.00 0.9894553
819.00 0.9617709
821.00 0.973413
823.00 0.9710785
825.00 0.9749448
827.00 0.9780783
829.00 0.9736203
831.00 0.9666508
833.00 0.9447545
835.00 0.9617204
837.00 0.9573248
839.00 0.9217299
841.00 0.9539768
843.00 0.9344406
845.00 0.9507856
847.00 0.9381712
849.00 0.9367329
851.00 0.9006589
853.00 0.9316667
855.00 0.8315729
857.00 0.9383684
859.00 0.9306733
861.00 0.9261181
863.00 0.9274353
865.00 0.9244551
867.00 0.8275782
869.00 0.8882733
871.00 0.9179076
873.00 0.9172385
875.00 0.9093048
877.00 0.9120607
879.00 0.9088495
881.00 0.8872107
883.00 0.8880745
885.00 0.8982117
887.00 0.8932731
889.00 0.9009082
891.00 0.8994971
893.00 0.8926109
895.00 0.8851437
897.00 0.8876982
899.00 0.8878073
901.00 0.861259
903.00 0.8792416
905.00 0.8826478
907.00 0.879044
909.00 0.8612515
911.00 0.866923
913.00 0.8669432
915.00 0.8676074
917.00 0.8651956
919.00 0.8656148
921.00 0.8581565
923.00 0.8593189
925.00 0.8517766
927.00 0.851601
929.00 0.8476897
931.00 0.8507355
933.00 0.8477421
935.00 0.8433156
937.00 0.8353648
939.00 0.8405269
941.00 0.829512
943.00 0.8360214
945.00 0.8268072
947.00 0.8312363
949.00 0.8296421
951.00 0.8268464
953.00 0.8242389
955.00 0.8162129
957.00 0.8151693
959.00 0.8182415
961.00 0.8099182
963.00 0.8111008
965.00 0.7971432
967.00 0.798063
969.00 0.8022092
971.00 0.7966735
973.00 0.7926396
975.00 0.7916073
977.00 0.7917822
979.00 0.7823635
981.00 0.7915815
983.00 0.7889695
985.00 0.7883015
987.00 0.7837487
989.00 0.7814992
991.00 0.7802945
993.00 0.7791921
995.00 0.7771269
997.00 0.7752682
999.00 0.7727535
1002.50 0.7683566
1007.50 0.7621907
1012.50 0.7576689
1017.50 0.7509006
1022.50 0.7461117
1027.50 0.7424895
1032.50 0.7325891
1037.50 0.7282276
1042.50 0.7268051
1047.50 0.7192426
1052.50 0.7169331
1057.50 0.7089311
1062.50 0.7053159
1067.50 0.6984846
1072.50 0.6958707
1077.50 0.6883354
1082.50 0.6807425
1087.50 0.6788024
1092.50 0.6773754
1097.50 0.6706344
1102.50 0.6685938
1107.50 0.6651623
1112.50 0.6599535
1117.50 0.6541077
1122.50 0.6517306
1127.50 0.6423876
1132.50 0.641397
1137.50 0.6342632
1142.50 0.6267661
1147.50 0.6297897
1152.50 0.6265692
1157.50 0.6201196
1162.50 0.6097303
1167.50 0.609771
1172.50 0.6105125
1177.50 0.6013995
1182.50 0.595599
1187.50 0.5889616
1192.50 0.5950205
1197.50 0.5784997
1202.50 0.5844098
1207.50 0.5788442
1212.50 0.5790822
1217.50 0.5767175
1222.50 0.5730017
1227.50 0.5685243
1232.50 0.5659113
1237.50 0.5626087
1242.50 0.5585445
1247.50 0.5560816
1252.50 0.5518373
1257.50 0.5494559
1262.50 0.54581
1267.50 0.5420101
1272.50 0.540048
1277.50 0.537311
1282.50 0.5291685
1287.50 0.5294675
1292.50 0.5254723
1297.50 0.5251034
1302.50 0.5217925
1307.50 0.5196806
1312.50 0.511992
1317.50 0.5103158
1322.50 0.5110594
1327.50 0.5055343
1332.50 0.5040766
1337.50 0.5023212
1342.50 0.5010217
1347.50 0.498331
1352.50 0.4959329
1357.50 0.4914608
1362.50 0.4876712
1367.50 0.4879293
1372.50 0.4865139
1377.50 0.4837081
1382.50 0.4818588
1387.50 0.4774295
1392.50 0.4776287
1397.50 0.4755354
1402.50 0.4710104
1407.50 0.4713033
1412.50 0.4679237
1417.50 0.4674049
1422.50 0.4632669
1427.50 0.4580171
1432.50 0.4604052
1437.50 0.4596718
1442.50 0.4534908
1447.50 0.4557816
1452.50 0.4515582
1457.00 0.4499493
1462.00 0.4505548
1467.50 0.4483252
1472.50 0.444368
1477.50 0.4440462
1482.50 0.442343
1487.50 0.4359714
1492.50 0.4404635
1497.50 0.4370485
1502.50 0.4247953
1507.50 0.4281709
1512.50 0.4334367
1517.50 0.4316947
1522.50 0.4288135
1527.50 0.4280924
1532.50 0.4263169
1537.50 0.4255457
1542.50 0.4252835
1547.50 0.4233544
1552.50 0.4201462
1557.50 0.4186351
1562.50 0.4174462
1567.50 0.4143904
1572.50 0.4127691
1577.50 0.4043404
1582.50 0.4080986
1587.50 0.4030937
1592.50 0.4060198
1597.50 0.4038415
1605.00 0.401424
1615.00 0.3960195
1625.00 0.392357
1635.00 0.3866821
1645.00 0.3790035
1655.00 0.3738034
1665.00 0.366273
1675.00 0.357143
1685.00 0.3511921
1695.00 0.3462389
1705.00 0.3380626
1715.00 0.3309284
1725.00 0.3254311
1735.00 0.3185154
1745.00 0.3133377
1755.00 0.3079657
1765.00 0.3023382
1775.00 0.2964461
1785.00 0.2913646
1795.00 0.2858751
1805.00 0.2803454
1815.00 0.2745111
1825.00 0.27
1835.00 0.265113
1845.00 0.2593072
1855.00 0.2556177
1865.00 0.2501526
1875.00 0.2417432
1885.00 0.2415951
1895.00 0.235342
1905.00 0.2333023
1915.00 0.2287338
1925.00 0.2249738
1935.00 0.2199037
1945.00 0.2145803
1955.00 0.2126766
1965.00 0.2093504
1975.00 0.2038352
1985.00 0.2009748
1995.00 0.1981612
2005.00 0.1958158
2015.00 0.1925896
2025.00 0.188756
2035.00 0.1854641
2045.00 0.1828712
2055.00 0.1797145
2065.00 0.1762445
2075.00 0.1735395
2085.00 0.1707571
2095.00 0.1673886
2105.00 0.1651726
2115.00 0.1623672
2125.00 0.1597368
2135.00 0.1572424
2145.00 0.154669
2155.00 0.1521826
2165.00 0.1489447
2175.00 0.1470175
2185.00 0.1446902
2195.00 0.1425407
2205.00 0.1394213
2215.00 0.1381295
2225.00 0.1354881
2235.00 0.133548
2245.00 0.1315289
2255.00 0.12959
2265.00 0.1272962
2275.00 0.1256217
2285.00 0.1233851
2295.00 0.117805
