# Version 2.1 - nm, norm@500 to 1, cut digits, bergeron_50000_80.dat_50000
# Wavelength(nm)  Flambda(ergs/cm^s/s/nm)
300.00 6.192
300.10 6.185
300.20 6.177
300.30 6.17
300.40 6.162
300.50 6.155
300.60 6.148
300.70 6.14
300.80 6.133
300.90 6.125
301.00 6.118
301.10 6.111
301.20 6.103
301.30 6.096
301.40 6.089
301.50 6.081
301.60 6.074
301.70 6.067
301.80 6.059
301.90 6.052
302.00 6.045
302.10 6.038
302.20 6.03
302.30 6.023
302.40 6.016
302.50 6.009
302.60 6.002
302.70 5.994
302.80 5.987
302.90 5.98
303.00 5.973
303.10 5.966
303.20 5.959
303.30 5.952
303.40 5.944
303.50 5.937
303.60 5.93
303.70 5.923
303.80 5.916
303.90 5.909
304.00 5.902
304.10 5.895
304.20 5.888
304.30 5.881
304.40 5.874
304.50 5.867
304.60 5.86
304.70 5.853
304.80 5.846
304.90 5.839
305.00 5.832
305.10 5.825
305.20 5.818
305.30 5.811
305.40 5.804
305.50 5.798
305.60 5.791
305.70 5.784
305.80 5.777
305.90 5.77
306.00 5.763
306.10 5.756
306.20 5.75
306.30 5.743
306.40 5.736
306.50 5.729
306.60 5.722
306.70 5.716
306.80 5.709
306.90 5.702
307.00 5.696
307.10 5.689
307.20 5.682
307.30 5.675
307.40 5.669
307.50 5.662
307.60 5.655
307.70 5.649
307.80 5.642
307.90 5.635
308.00 5.629
308.10 5.622
308.20 5.615
308.30 5.609
308.40 5.602
308.50 5.596
308.60 5.589
308.70 5.582
308.80 5.576
308.90 5.569
309.00 5.563
309.10 5.556
309.20 5.55
309.30 5.543
309.40 5.537
309.50 5.53
309.60 5.524
309.70 5.517
309.80 5.511
309.90 5.504
310.00 5.498
310.10 5.492
310.20 5.485
310.30 5.479
310.40 5.472
310.50 5.466
310.60 5.46
310.70 5.453
310.80 5.447
310.90 5.44
311.00 5.434
311.10 5.428
311.20 5.421
311.30 5.415
311.40 5.409
311.50 5.402
311.60 5.396
311.70 5.39
311.80 5.384
311.90 5.377
312.00 5.371
312.10 5.365
312.20 5.359
312.30 5.352
312.40 5.346
312.50 5.34
312.60 5.334
312.70 5.327
312.80 5.321
312.90 5.315
313.00 5.309
313.10 5.303
313.20 5.297
313.30 5.291
313.40 5.284
313.50 5.278
313.60 5.272
313.70 5.266
313.80 5.26
313.90 5.254
314.00 5.248
314.10 5.242
314.20 5.236
314.30 5.23
314.40 5.224
314.50 5.218
314.60 5.212
314.70 5.205
314.80 5.199
314.90 5.193
315.00 5.187
315.10 5.182
315.20 5.176
315.30 5.17
315.40 5.164
315.50 5.158
315.60 5.152
315.70 5.146
315.80 5.14
315.90 5.134
316.00 5.128
316.10 5.122
316.20 5.116
316.30 5.11
316.40 5.105
316.50 5.099
316.60 5.093
316.70 5.087
316.80 5.081
316.90 5.075
317.00 5.069
317.10 5.064
317.20 5.058
317.30 5.052
317.40 5.046
317.50 5.041
317.60 5.035
317.70 5.029
317.80 5.023
317.90 5.017
318.00 5.012
318.10 5.006
318.20 5
318.30 4.995
318.40 4.989
318.50 4.983
318.60 4.977
318.70 4.972
318.80 4.966
318.90 4.96
319.00 4.955
319.10 4.949
319.20 4.944
319.30 4.938
319.40 4.932
319.50 4.927
319.60 4.921
319.70 4.915
319.80 4.91
319.90 4.904
320.00 4.899
320.10 4.893
320.20 4.888
320.30 4.882
320.40 4.876
320.50 4.871
320.60 4.865
320.70 4.86
320.80 4.854
320.90 4.849
321.00 4.843
321.10 4.838
321.20 4.832
321.30 4.827
321.40 4.821
321.50 4.816
321.60 4.811
321.70 4.805
321.80 4.8
321.90 4.794
322.00 4.789
322.10 4.783
322.20 4.778
322.30 4.773
322.40 4.767
322.50 4.762
322.60 4.756
322.70 4.751
322.80 4.746
322.90 4.74
323.00 4.735
323.10 4.73
323.20 4.724
323.30 4.719
323.40 4.714
323.50 4.708
323.60 4.703
323.70 4.698
323.80 4.693
323.90 4.687
324.00 4.682
324.10 4.677
324.20 4.672
324.30 4.666
324.40 4.661
324.50 4.656
324.60 4.651
324.70 4.645
324.80 4.64
324.90 4.635
325.00 4.63
325.10 4.625
325.20 4.619
325.30 4.614
325.40 4.609
325.50 4.604
325.60 4.599
325.70 4.594
325.80 4.589
325.90 4.583
326.00 4.578
326.10 4.573
326.20 4.568
326.30 4.563
326.40 4.558
326.50 4.553
326.60 4.548
326.70 4.543
326.80 4.538
326.90 4.532
327.00 4.527
327.10 4.522
327.20 4.517
327.30 4.512
327.40 4.507
327.50 4.502
327.60 4.497
327.70 4.492
327.80 4.487
327.90 4.482
328.00 4.477
328.10 4.472
328.20 4.467
328.30 4.462
328.40 4.457
328.50 4.453
328.60 4.448
328.70 4.443
328.80 4.438
328.90 4.433
329.00 4.428
329.10 4.423
329.20 4.418
329.30 4.413
329.40 4.408
329.50 4.403
329.60 4.399
329.70 4.394
329.80 4.389
329.90 4.384
330.00 4.379
330.10 4.374
330.20 4.37
330.30 4.365
330.40 4.36
330.50 4.355
330.60 4.35
330.70 4.346
330.80 4.341
330.90 4.336
331.00 4.331
331.10 4.326
331.20 4.322
331.30 4.317
331.40 4.312
331.50 4.307
331.60 4.303
331.70 4.298
331.80 4.293
331.90 4.288
332.00 4.284
332.10 4.279
332.20 4.274
332.30 4.27
332.40 4.265
332.50 4.26
332.60 4.256
332.70 4.251
332.80 4.246
332.90 4.242
333.00 4.237
333.10 4.232
333.20 4.228
333.30 4.223
333.40 4.218
333.50 4.214
333.60 4.209
333.70 4.205
333.80 4.2
333.90 4.195
334.00 4.191
334.10 4.186
334.20 4.182
334.30 4.177
334.40 4.173
334.50 4.168
334.60 4.163
334.70 4.159
334.80 4.154
334.90 4.15
335.00 4.145
335.10 4.141
335.20 4.136
335.30 4.132
335.40 4.127
335.50 4.123
335.60 4.118
335.70 4.114
335.80 4.109
335.90 4.105
336.00 4.1
336.10 4.096
336.20 4.092
336.30 4.087
336.40 4.083
336.50 4.078
336.60 4.074
336.70 4.069
336.80 4.065
336.90 4.061
337.00 4.056
337.10 4.052
337.20 4.047
337.30 4.043
337.40 4.039
337.50 4.034
337.60 4.03
337.70 4.026
337.80 4.021
337.90 4.017
338.00 4.012
338.10 4.008
338.20 4.004
338.30 4
338.40 3.995
338.50 3.991
338.60 3.987
338.70 3.982
338.80 3.978
338.90 3.974
339.00 3.969
339.10 3.965
339.20 3.961
339.30 3.957
339.40 3.952
339.50 3.948
339.60 3.944
339.70 3.94
339.80 3.935
339.90 3.931
340.00 3.927
340.10 3.923
340.20 3.919
340.30 3.914
340.40 3.91
340.50 3.906
340.60 3.902
340.70 3.898
340.80 3.893
340.90 3.889
341.00 3.885
341.10 3.881
341.20 3.877
341.30 3.873
341.40 3.868
341.50 3.864
341.60 3.86
341.70 3.856
341.80 3.852
341.90 3.848
342.00 3.844
342.10 3.84
342.20 3.835
342.30 3.831
342.40 3.827
342.50 3.823
342.60 3.819
342.70 3.815
342.80 3.811
342.90 3.807
343.00 3.803
343.10 3.799
343.20 3.795
343.30 3.791
343.40 3.787
343.50 3.783
343.60 3.779
343.70 3.775
343.80 3.771
343.90 3.767
344.00 3.763
344.10 3.759
344.20 3.755
344.30 3.751
344.40 3.747
344.50 3.743
344.60 3.739
344.70 3.735
344.80 3.731
344.90 3.727
345.00 3.723
345.10 3.719
345.20 3.715
345.30 3.711
345.40 3.707
345.50 3.703
345.60 3.699
345.70 3.695
345.80 3.691
345.90 3.687
346.00 3.684
346.10 3.68
346.20 3.676
346.30 3.672
346.40 3.668
346.50 3.664
346.60 3.66
346.70 3.656
346.80 3.653
346.90 3.649
347.00 3.645
347.10 3.641
347.20 3.637
347.30 3.633
347.40 3.63
347.50 3.626
347.60 3.622
347.70 3.618
347.80 3.614
347.90 3.61
348.00 3.607
348.10 3.603
348.20 3.599
348.30 3.595
348.40 3.592
348.50 3.588
348.60 3.584
348.70 3.58
348.80 3.576
348.90 3.573
349.00 3.569
349.10 3.565
349.20 3.562
349.30 3.558
349.40 3.554
349.50 3.55
349.60 3.547
349.70 3.543
349.80 3.539
349.90 3.535
350.00 3.532
350.10 3.528
350.20 3.524
350.30 3.521
350.40 3.517
350.50 3.513
350.60 3.51
350.70 3.506
350.80 3.502
350.90 3.499
351.00 3.495
351.10 3.491
351.20 3.488
351.30 3.484
351.40 3.481
351.50 3.477
351.60 3.473
351.70 3.47
351.80 3.466
351.90 3.462
352.00 3.459
352.10 3.455
352.20 3.452
352.30 3.448
352.40 3.444
352.50 3.441
352.60 3.437
352.70 3.434
352.80 3.43
352.90 3.427
353.00 3.423
353.10 3.42
353.20 3.416
353.30 3.412
353.40 3.409
353.50 3.405
353.60 3.402
353.70 3.398
353.80 3.395
353.90 3.391
354.00 3.388
354.10 3.384
354.20 3.381
354.30 3.377
354.40 3.374
354.50 3.37
354.60 3.367
354.70 3.363
354.80 3.36
354.90 3.356
355.00 3.353
355.10 3.349
355.20 3.346
355.30 3.343
355.40 3.339
355.50 3.336
355.60 3.332
355.70 3.329
355.80 3.325
355.90 3.322
356.00 3.318
356.10 3.315
356.20 3.312
356.30 3.308
356.40 3.305
356.50 3.301
356.60 3.298
356.70 3.295
356.80 3.291
356.90 3.288
357.00 3.285
357.10 3.281
357.20 3.278
357.30 3.274
357.40 3.271
357.50 3.268
357.60 3.264
357.70 3.261
357.80 3.258
357.90 3.254
358.00 3.251
358.10 3.248
358.20 3.244
358.30 3.241
358.40 3.238
358.50 3.234
358.60 3.231
358.70 3.228
358.80 3.225
358.90 3.221
359.00 3.218
359.10 3.215
359.20 3.211
359.30 3.208
359.40 3.205
359.50 3.202
359.60 3.198
359.70 3.195
359.80 3.192
359.90 3.188
360.00 3.185
360.10 3.182
360.20 3.179
360.30 3.175
360.40 3.172
360.50 3.169
360.60 3.166
360.70 3.163
360.80 3.159
360.90 3.156
361.00 3.153
361.10 3.15
361.20 3.147
361.30 3.143
361.40 3.14
361.50 3.137
361.60 3.134
361.70 3.131
361.80 3.127
361.90 3.124
362.00 3.121
362.10 3.118
362.20 3.115
362.30 3.112
362.40 3.108
362.50 3.105
362.60 3.102
362.70 3.099
362.80 3.096
362.90 3.093
363.00 3.09
363.10 3.087
363.20 3.083
363.30 3.08
363.40 3.077
363.50 3.074
363.60 3.071
363.70 3.068
363.80 3.065
363.90 3.062
364.00 3.059
364.10 3.056
364.20 3.052
364.30 3.049
364.40 3.046
364.50 3.043
364.60 3.04
364.70 3.037
364.80 3.034
364.90 3.031
365.00 3.028
365.10 3.025
365.20 3.022
365.30 3.019
365.40 3.016
365.50 3.013
365.60 3.01
365.70 3.007
365.80 3.004
365.90 3.001
366.00 2.998
366.10 2.995
366.20 2.991
366.30 2.988
366.40 2.985
366.50 2.982
366.60 2.979
366.70 2.976
366.80 2.973
366.90 2.97
367.00 2.967
367.10 2.964
367.20 2.961
367.30 2.958
367.40 2.955
367.50 2.951
367.60 2.948
367.70 2.945
367.80 2.942
367.90 2.939
368.00 2.936
368.10 2.933
368.20 2.93
368.30 2.927
368.40 2.924
368.50 2.921
368.60 2.918
368.70 2.915
368.80 2.912
368.90 2.909
369.00 2.906
369.10 2.903
369.20 2.9
369.30 2.897
369.40 2.894
369.50 2.891
369.60 2.888
369.70 2.885
369.80 2.882
369.90 2.879
370.00 2.876
370.10 2.873
370.20 2.87
370.30 2.867
370.40 2.864
370.50 2.861
370.60 2.858
370.70 2.855
370.80 2.852
370.90 2.849
371.00 2.846
371.10 2.843
371.20 2.84
371.30 2.838
371.40 2.835
371.50 2.832
371.60 2.829
371.70 2.826
371.80 2.823
371.90 2.82
372.00 2.817
372.10 2.814
372.20 2.812
372.30 2.809
372.40 2.806
372.50 2.803
372.60 2.8
372.70 2.797
372.80 2.795
372.90 2.792
373.00 2.789
373.10 2.786
373.20 2.783
373.30 2.781
373.40 2.778
373.50 2.775
373.60 2.772
373.70 2.769
373.80 2.767
373.90 2.764
374.00 2.761
374.10 2.758
374.20 2.756
374.30 2.753
374.40 2.75
374.50 2.747
374.60 2.745
374.70 2.742
374.80 2.739
374.90 2.736
375.00 2.734
375.10 2.731
375.20 2.728
375.30 2.726
375.40 2.723
375.50 2.72
375.60 2.717
375.70 2.715
375.80 2.712
375.90 2.709
376.00 2.707
376.10 2.704
376.20 2.701
376.30 2.699
376.40 2.696
376.50 2.693
376.60 2.691
376.70 2.688
376.80 2.686
376.90 2.683
377.00 2.68
377.10 2.678
377.20 2.675
377.30 2.673
377.40 2.67
377.50 2.668
377.60 2.665
377.70 2.663
377.80 2.66
377.90 2.658
378.00 2.655
378.10 2.653
378.20 2.65
378.30 2.648
378.40 2.645
378.50 2.643
378.60 2.64
378.70 2.638
378.80 2.635
378.90 2.633
379.00 2.631
379.10 2.628
379.20 2.626
379.30 2.623
379.40 2.621
379.50 2.619
379.60 2.616
379.70 2.614
379.80 2.611
379.90 2.609
380.00 2.607
380.10 2.604
380.20 2.602
380.30 2.6
380.40 2.598
380.50 2.596
380.60 2.593
380.70 2.591
380.80 2.589
380.90 2.587
381.00 2.585
381.10 2.582
381.20 2.58
381.30 2.578
381.40 2.576
381.50 2.573
381.60 2.571
381.70 2.568
381.80 2.566
381.90 2.564
382.00 2.561
382.10 2.559
382.20 2.556
382.30 2.553
382.40 2.551
382.50 2.548
382.60 2.545
382.70 2.543
382.80 2.54
382.90 2.538
383.00 2.535
383.10 2.532
383.20 2.53
383.30 2.527
383.40 2.525
383.50 2.523
383.60 2.521
383.70 2.519
383.80 2.517
383.90 2.515
384.00 2.514
384.10 2.513
384.20 2.511
384.30 2.51
384.40 2.508
384.50 2.507
384.60 2.505
384.70 2.503
384.80 2.502
384.90 2.5
385.00 2.498
385.10 2.497
385.20 2.495
385.30 2.493
385.40 2.491
385.50 2.489
385.60 2.487
385.70 2.484
385.80 2.482
385.90 2.48
386.00 2.477
386.10 2.475
386.20 2.472
386.30 2.47
386.40 2.467
386.50 2.464
386.60 2.461
386.70 2.458
386.80 2.455
386.90 2.452
387.00 2.449
387.10 2.445
387.20 2.442
387.30 2.438
387.40 2.435
387.50 2.431
387.60 2.428
387.70 2.424
387.80 2.42
387.90 2.416
388.00 2.412
388.10 2.409
388.20 2.405
388.30 2.401
388.40 2.397
388.50 2.394
388.60 2.391
388.70 2.388
388.80 2.385
388.90 2.383
389.00 2.382
389.10 2.381
389.20 2.38
389.30 2.38
389.40 2.379
389.50 2.379
389.60 2.379
389.70 2.38
389.80 2.38
389.90 2.38
390.00 2.38
390.10 2.38
390.20 2.38
390.30 2.38
390.40 2.38
390.50 2.38
390.60 2.38
390.70 2.38
390.80 2.379
390.90 2.379
391.00 2.379
391.10 2.378
391.20 2.377
391.30 2.376
391.40 2.375
391.50 2.374
391.60 2.373
391.70 2.372
391.80 2.371
391.90 2.369
392.00 2.367
392.10 2.366
392.20 2.364
392.30 2.362
392.40 2.36
392.50 2.358
392.60 2.356
392.70 2.353
392.80 2.351
392.90 2.348
393.00 2.345
393.10 2.342
393.20 2.339
393.30 2.336
393.40 2.333
393.50 2.33
393.60 2.326
393.70 2.322
393.80 2.319
393.90 2.315
394.00 2.311
394.10 2.306
394.20 2.302
394.30 2.297
394.40 2.293
394.50 2.288
394.60 2.283
394.70 2.278
394.80 2.272
394.90 2.267
395.00 2.261
395.10 2.256
395.20 2.25
395.30 2.244
395.40 2.238
395.50 2.231
395.60 2.225
395.70 2.218
395.80 2.212
395.90 2.205
396.00 2.198
396.10 2.191
396.20 2.184
396.30 2.177
396.40 2.17
396.50 2.163
396.60 2.156
396.70 2.149
396.80 2.143
396.90 2.137
397.00 2.131
397.10 2.133
397.20 2.135
397.30 2.138
397.40 2.141
397.50 2.145
397.60 2.148
397.70 2.152
397.80 2.156
397.90 2.159
398.00 2.163
398.10 2.166
398.20 2.169
398.30 2.172
398.40 2.175
398.50 2.178
398.60 2.181
398.70 2.184
398.80 2.187
398.90 2.189
399.00 2.191
399.10 2.194
399.20 2.196
399.30 2.197
399.40 2.199
399.50 2.201
399.60 2.202
399.70 2.204
399.80 2.205
399.90 2.206
400.00 2.207
400.10 2.208
400.20 2.208
400.30 2.209
400.40 2.209
400.50 2.21
400.60 2.21
400.70 2.21
400.80 2.21
400.90 2.21
401.00 2.21
401.10 2.21
401.20 2.21
401.30 2.209
401.40 2.209
401.50 2.208
401.60 2.207
401.70 2.207
401.80 2.206
401.90 2.205
402.00 2.204
402.10 2.203
402.20 2.202
402.30 2.2
402.40 2.199
402.50 2.198
402.60 2.196
402.70 2.195
402.80 2.193
402.90 2.191
403.00 2.19
403.10 2.188
403.20 2.186
403.30 2.184
403.40 2.182
403.50 2.18
403.60 2.178
403.70 2.175
403.80 2.173
403.90 2.171
404.00 2.168
404.10 2.166
404.20 2.163
404.30 2.16
404.40 2.158
404.50 2.155
404.60 2.152
404.70 2.149
404.80 2.146
404.90 2.143
405.00 2.139
405.10 2.136
405.20 2.133
405.30 2.129
405.40 2.126
405.50 2.122
405.60 2.118
405.70 2.114
405.80 2.11
405.90 2.106
406.00 2.101
406.10 2.097
406.20 2.092
406.30 2.088
406.40 2.083
406.50 2.078
406.60 2.073
406.70 2.067
406.80 2.062
406.90 2.056
407.00 2.051
407.10 2.045
407.20 2.039
407.30 2.032
407.40 2.026
407.50 2.019
407.60 2.012
407.70 2.005
407.80 1.998
407.90 1.99
408.00 1.983
408.10 1.975
408.20 1.966
408.30 1.958
408.40 1.949
408.50 1.941
408.60 1.931
408.70 1.922
408.80 1.913
408.90 1.903
409.00 1.893
409.10 1.883
409.20 1.872
409.30 1.862
409.40 1.851
409.50 1.841
409.60 1.83
409.70 1.82
409.80 1.811
409.90 1.802
410.00 1.798
410.10 1.797
410.20 1.799
410.30 1.794
410.40 1.793
410.50 1.797
410.60 1.803
410.70 1.809
410.80 1.817
410.90 1.824
411.00 1.831
411.10 1.839
411.20 1.846
411.30 1.853
411.40 1.86
411.50 1.866
411.60 1.872
411.70 1.878
411.80 1.884
411.90 1.89
412.00 1.895
412.10 1.9
412.20 1.905
412.30 1.91
412.40 1.914
412.50 1.918
412.60 1.922
412.70 1.925
412.80 1.929
412.90 1.932
413.00 1.935
413.10 1.938
413.20 1.941
413.30 1.943
413.40 1.945
413.50 1.948
413.60 1.95
413.70 1.951
413.80 1.953
413.90 1.955
414.00 1.956
414.10 1.957
414.20 1.958
414.30 1.96
414.40 1.96
414.50 1.961
414.60 1.962
414.70 1.963
414.80 1.963
414.90 1.963
415.00 1.964
415.10 1.964
415.20 1.964
415.30 1.964
415.40 1.964
415.50 1.964
415.60 1.964
415.70 1.964
415.80 1.963
415.90 1.963
416.00 1.963
416.10 1.962
416.20 1.962
416.30 1.961
416.40 1.961
416.50 1.96
416.60 1.959
416.70 1.958
416.80 1.958
416.90 1.957
417.00 1.956
417.10 1.955
417.20 1.954
417.30 1.953
417.40 1.952
417.50 1.951
417.60 1.95
417.70 1.949
417.80 1.948
417.90 1.947
418.00 1.946
418.10 1.945
418.20 1.943
418.30 1.942
418.40 1.941
418.50 1.94
418.60 1.938
418.70 1.937
418.80 1.936
418.90 1.935
419.00 1.933
419.10 1.932
419.20 1.93
419.30 1.929
419.40 1.928
419.50 1.926
419.60 1.925
419.70 1.923
419.80 1.922
419.90 1.92
420.00 1.919
420.10 1.917
420.20 1.916
420.30 1.914
420.40 1.913
420.50 1.911
420.60 1.91
420.70 1.908
420.80 1.907
420.90 1.905
421.00 1.904
421.10 1.902
421.20 1.9
421.30 1.899
421.40 1.897
421.50 1.895
421.60 1.894
421.70 1.892
421.80 1.891
421.90 1.889
422.00 1.887
422.10 1.886
422.20 1.884
422.30 1.882
422.40 1.881
422.50 1.879
422.60 1.877
422.70 1.875
422.80 1.874
422.90 1.872
423.00 1.87
423.10 1.868
423.20 1.867
423.30 1.865
423.40 1.863
423.50 1.861
423.60 1.859
423.70 1.858
423.80 1.856
423.90 1.854
424.00 1.852
424.10 1.85
424.20 1.848
424.30 1.847
424.40 1.845
424.50 1.843
424.60 1.841
424.70 1.839
424.80 1.837
424.90 1.835
425.00 1.833
425.10 1.831
425.20 1.829
425.30 1.827
425.40 1.825
425.50 1.823
425.60 1.821
425.70 1.819
425.80 1.817
425.90 1.815
426.00 1.813
426.10 1.811
426.20 1.808
426.30 1.806
426.40 1.804
426.50 1.802
426.60 1.8
426.70 1.797
426.80 1.795
426.90 1.793
427.00 1.79
427.10 1.788
427.20 1.786
427.30 1.783
427.40 1.781
427.50 1.778
427.60 1.775
427.70 1.773
427.80 1.77
427.90 1.768
428.00 1.765
428.10 1.762
428.20 1.759
428.30 1.756
428.40 1.753
428.50 1.75
428.60 1.747
428.70 1.744
428.80 1.741
428.90 1.738
429.00 1.734
429.10 1.731
429.20 1.727
429.30 1.724
429.40 1.72
429.50 1.716
429.60 1.712
429.70 1.708
429.80 1.704
429.90 1.7
430.00 1.696
430.10 1.691
430.20 1.687
430.30 1.682
430.40 1.677
430.50 1.672
430.60 1.667
430.70 1.662
430.80 1.657
430.90 1.651
431.00 1.645
431.10 1.639
431.20 1.633
431.30 1.627
431.40 1.62
431.50 1.614
431.60 1.607
431.70 1.599
431.80 1.592
431.90 1.584
432.00 1.576
432.10 1.568
432.20 1.56
432.30 1.551
432.40 1.542
432.50 1.533
432.60 1.523
432.70 1.514
432.80 1.504
432.90 1.493
433.00 1.483
433.10 1.472
433.20 1.462
433.30 1.451
433.40 1.44
433.50 1.429
433.60 1.418
433.70 1.408
433.80 1.398
433.90 1.388
434.00 1.378
434.10 1.377
434.20 1.386
434.30 1.393
434.40 1.401
434.50 1.409
434.60 1.417
434.70 1.426
434.80 1.434
434.90 1.443
435.00 1.451
435.10 1.459
435.20 1.467
435.30 1.475
435.40 1.482
435.50 1.489
435.60 1.496
435.70 1.502
435.80 1.508
435.90 1.514
436.00 1.52
436.10 1.525
436.20 1.531
436.30 1.535
436.40 1.54
436.50 1.544
436.60 1.548
436.70 1.552
436.80 1.556
436.90 1.559
437.00 1.563
437.10 1.566
437.20 1.568
437.30 1.571
437.40 1.573
437.50 1.576
437.60 1.578
437.70 1.58
437.80 1.582
437.90 1.583
438.00 1.585
438.10 1.586
438.20 1.588
438.30 1.589
438.40 1.59
438.50 1.591
438.60 1.592
438.70 1.592
438.80 1.593
438.90 1.594
439.00 1.594
439.10 1.595
439.20 1.595
439.30 1.595
439.40 1.595
439.50 1.595
439.60 1.595
439.70 1.595
439.80 1.595
439.90 1.595
440.00 1.595
440.10 1.595
440.20 1.595
440.30 1.594
440.40 1.594
440.50 1.593
440.60 1.593
440.70 1.593
440.80 1.592
440.90 1.591
441.00 1.591
441.10 1.59
441.20 1.59
441.30 1.589
441.40 1.588
441.50 1.588
441.60 1.587
441.70 1.586
441.80 1.585
441.90 1.584
442.00 1.584
442.10 1.583
442.20 1.582
442.30 1.581
442.40 1.58
442.50 1.579
442.60 1.578
442.70 1.577
442.80 1.576
442.90 1.575
443.00 1.574
443.10 1.573
443.20 1.572
443.30 1.571
443.40 1.57
443.50 1.569
443.60 1.568
443.70 1.567
443.80 1.566
443.90 1.565
444.00 1.564
444.10 1.563
444.20 1.562
444.30 1.561
444.40 1.56
444.50 1.559
444.60 1.557
444.70 1.556
444.80 1.555
444.90 1.554
445.00 1.553
445.10 1.552
445.20 1.551
445.30 1.55
445.40 1.548
445.50 1.547
445.60 1.546
445.70 1.545
445.80 1.544
445.90 1.543
446.00 1.541
446.10 1.54
446.20 1.539
446.30 1.538
446.40 1.537
446.50 1.536
446.60 1.534
446.70 1.533
446.80 1.532
446.90 1.531
447.00 1.53
447.10 1.528
447.20 1.527
447.30 1.526
447.40 1.525
447.50 1.524
447.60 1.522
447.70 1.521
447.80 1.52
447.90 1.519
448.00 1.518
448.10 1.516
448.20 1.515
448.30 1.514
448.40 1.513
448.50 1.512
448.60 1.51
448.70 1.509
448.80 1.508
448.90 1.507
449.00 1.505
449.10 1.504
449.20 1.503
449.30 1.502
449.40 1.501
449.50 1.499
449.60 1.498
449.70 1.497
449.80 1.496
449.90 1.495
450.00 1.493
450.10 1.492
450.20 1.491
450.30 1.49
450.40 1.488
450.50 1.487
450.60 1.486
450.70 1.485
450.80 1.484
450.90 1.482
451.00 1.481
451.10 1.48
451.20 1.479
451.30 1.478
451.40 1.476
451.50 1.475
451.60 1.474
451.70 1.473
451.80 1.472
451.90 1.47
452.00 1.469
452.10 1.468
452.20 1.467
452.30 1.466
452.40 1.464
452.50 1.463
452.60 1.462
452.70 1.461
452.80 1.46
452.90 1.458
453.00 1.457
453.10 1.456
453.20 1.455
453.30 1.454
453.40 1.452
453.50 1.451
453.60 1.45
453.70 1.449
453.80 1.448
453.90 1.446
454.00 1.445
454.10 1.444
454.20 1.443
454.30 1.442
454.40 1.44
454.50 1.439
454.60 1.438
454.70 1.437
454.80 1.436
454.90 1.434
455.00 1.433
455.10 1.432
455.20 1.431
455.30 1.43
455.40 1.429
455.50 1.427
455.60 1.426
455.70 1.425
455.80 1.424
455.90 1.423
456.00 1.422
456.10 1.42
456.20 1.419
456.30 1.418
456.40 1.417
456.50 1.416
456.60 1.414
456.70 1.413
456.80 1.412
456.90 1.411
457.00 1.41
457.10 1.409
457.20 1.407
457.30 1.406
457.40 1.405
457.50 1.404
457.60 1.403
457.70 1.402
457.80 1.401
457.90 1.399
458.00 1.398
458.10 1.397
458.20 1.396
458.30 1.395
458.40 1.394
458.50 1.392
458.60 1.391
458.70 1.39
458.80 1.389
458.90 1.388
459.00 1.387
459.10 1.386
459.20 1.384
459.30 1.383
459.40 1.382
459.50 1.381
459.60 1.38
459.70 1.379
459.80 1.378
459.90 1.376
460.00 1.375
460.10 1.374
460.20 1.373
460.30 1.372
460.40 1.371
460.50 1.37
460.60 1.368
460.70 1.367
460.80 1.366
460.90 1.365
461.00 1.364
461.10 1.363
461.20 1.362
461.30 1.361
461.40 1.359
461.50 1.358
461.60 1.357
461.70 1.356
461.80 1.355
461.90 1.354
462.00 1.353
462.10 1.352
462.20 1.35
462.30 1.349
462.40 1.348
462.50 1.347
462.60 1.346
462.70 1.345
462.80 1.344
462.90 1.343
463.00 1.342
463.10 1.34
463.20 1.339
463.30 1.338
463.40 1.337
463.50 1.336
463.60 1.335
463.70 1.334
463.80 1.333
463.90 1.332
464.00 1.33
464.10 1.329
464.20 1.328
464.30 1.327
464.40 1.326
464.50 1.325
464.60 1.324
464.70 1.323
464.80 1.322
464.90 1.321
465.00 1.319
465.10 1.318
465.20 1.317
465.30 1.316
465.40 1.315
465.50 1.314
465.60 1.313
465.70 1.312
465.80 1.311
465.90 1.31
466.00 1.309
466.10 1.307
466.20 1.306
466.30 1.305
466.40 1.304
466.50 1.303
466.60 1.302
466.70 1.301
466.80 1.3
466.90 1.299
467.00 1.298
467.10 1.297
467.20 1.296
467.30 1.294
467.40 1.293
467.50 1.292
467.60 1.291
467.70 1.29
467.80 1.289
467.90 1.288
468.00 1.287
468.10 1.286
468.20 1.285
468.30 1.284
468.40 1.283
468.50 1.282
468.60 1.28
468.70 1.279
468.80 1.278
468.90 1.277
469.00 1.276
469.10 1.275
469.20 1.274
469.30 1.273
469.40 1.272
469.50 1.271
469.60 1.27
469.70 1.269
469.80 1.268
469.90 1.266
470.00 1.265
470.10 1.264
470.20 1.263
470.30 1.262
470.40 1.261
470.50 1.26
470.60 1.259
470.70 1.258
470.80 1.257
470.90 1.256
471.00 1.255
471.10 1.254
471.20 1.253
471.30 1.251
471.40 1.25
471.50 1.249
471.60 1.248
471.70 1.247
471.80 1.246
471.90 1.245
472.00 1.244
472.10 1.243
472.20 1.242
472.30 1.241
472.40 1.24
472.50 1.239
472.60 1.237
472.70 1.236
472.80 1.235
472.90 1.234
473.00 1.233
473.10 1.232
473.20 1.231
473.30 1.23
473.40 1.229
473.50 1.228
473.60 1.227
473.70 1.225
473.80 1.224
473.90 1.223
474.00 1.222
474.10 1.221
474.20 1.22
474.30 1.219
474.40 1.218
474.50 1.217
474.60 1.216
474.70 1.214
474.80 1.213
474.90 1.212
475.00 1.211
475.10 1.21
475.20 1.209
475.30 1.208
475.40 1.207
475.50 1.205
475.60 1.204
475.70 1.203
475.80 1.202
475.90 1.201
476.00 1.2
476.10 1.198
476.20 1.197
476.30 1.196
476.40 1.195
476.50 1.194
476.60 1.192
476.70 1.191
476.80 1.19
476.90 1.189
477.00 1.188
477.10 1.186
477.20 1.185
477.30 1.184
477.40 1.183
477.50 1.181
477.60 1.18
477.70 1.179
477.80 1.177
477.90 1.176
478.00 1.175
478.10 1.174
478.20 1.172
478.30 1.171
478.40 1.169
478.50 1.168
478.60 1.167
478.70 1.165
478.80 1.164
478.90 1.162
479.00 1.161
479.10 1.16
479.20 1.158
479.30 1.156
479.40 1.155
479.50 1.153
479.60 1.152
479.70 1.15
479.80 1.148
479.90 1.147
480.00 1.145
480.10 1.144
480.20 1.142
480.30 1.14
480.40 1.138
480.50 1.136
480.60 1.134
480.70 1.132
480.80 1.13
480.90 1.128
481.00 1.127
481.10 1.125
481.20 1.122
481.30 1.12
481.40 1.118
481.50 1.115
481.60 1.113
481.70 1.11
481.80 1.108
481.90 1.106
482.00 1.103
482.10 1.101
482.20 1.098
482.30 1.095
482.40 1.091
482.50 1.088
482.60 1.085
482.70 1.082
482.80 1.079
482.90 1.075
483.00 1.072
483.10 1.069
483.20 1.065
483.30 1.061
483.40 1.056
483.50 1.052
483.60 1.048
483.70 1.043
483.80 1.039
483.90 1.035
484.00 1.03
484.10 1.026
484.20 1.021
484.30 1.015
484.40 1.01
484.50 1.004
484.60 0.9985
484.70 0.9923
484.80 0.9859
484.90 0.9795
485.00 0.9731
485.10 0.9667
485.20 0.9599
485.30 0.9529
485.40 0.9457
485.50 0.9386
485.60 0.9314
485.70 0.9242
485.80 0.9175
485.90 0.9109
486.00 0.9062
486.10 0.9146
486.20 0.908
486.30 0.905
486.40 0.9097
486.50 0.9148
486.60 0.9204
486.70 0.9262
486.80 0.932
486.90 0.9377
487.00 0.9433
487.10 0.9488
487.20 0.9539
487.30 0.9588
487.40 0.9637
487.50 0.9686
487.60 0.9735
487.70 0.9778
487.80 0.9817
487.90 0.9857
488.00 0.9896
488.10 0.9935
488.20 0.9966
488.30 0.9993
488.40 1.002
488.50 1.005
488.60 1.007
488.70 1.01
488.80 1.013
488.90 1.015
489.00 1.018
489.10 1.021
489.20 1.023
489.30 1.024
489.40 1.025
489.50 1.027
489.60 1.028
489.70 1.03
489.80 1.031
489.90 1.032
490.00 1.034
490.10 1.035
490.20 1.036
490.30 1.037
490.40 1.037
490.50 1.038
490.60 1.039
490.70 1.039
490.80 1.04
490.90 1.04
491.00 1.041
491.10 1.042
491.20 1.042
491.30 1.042
491.40 1.042
491.50 1.042
491.60 1.042
491.70 1.042
491.80 1.043
491.90 1.043
492.00 1.043
492.10 1.043
492.20 1.043
492.30 1.043
492.40 1.042
492.50 1.042
492.60 1.042
492.70 1.042
492.80 1.042
492.90 1.041
493.00 1.041
493.10 1.041
493.20 1.041
493.30 1.04
493.40 1.04
493.50 1.04
493.60 1.039
493.70 1.039
493.80 1.038
493.90 1.038
494.00 1.038
494.10 1.037
494.20 1.037
494.30 1.036
494.40 1.036
494.50 1.035
494.60 1.035
494.70 1.034
494.80 1.034
494.90 1.033
495.00 1.033
495.10 1.032
495.20 1.032
495.30 1.031
495.40 1.03
495.50 1.03
495.60 1.029
495.70 1.029
495.80 1.028
495.90 1.027
496.00 1.027
496.10 1.026
496.20 1.026
496.30 1.025
496.40 1.024
496.50 1.024
496.60 1.023
496.70 1.022
496.80 1.022
496.90 1.021
497.00 1.02
497.10 1.02
497.20 1.019
497.30 1.019
497.40 1.018
497.50 1.017
497.60 1.017
497.70 1.016
497.80 1.015
497.90 1.015
498.00 1.014
498.10 1.013
498.20 1.013
498.30 1.012
498.40 1.011
498.50 1.01
498.60 1.01
498.70 1.009
498.80 1.008
498.90 1.008
499.00 1.007
499.10 1.006
499.20 1.006
499.30 1.005
499.40 1.004
499.50 1.004
499.60 1.003
499.70 1.002
499.80 1.001
499.90 1.001
500.00 1
500.10 0.9993
500.20 0.9986
500.30 0.9979
500.40 0.9972
500.50 0.9965
500.60 0.9958
500.70 0.9951
500.80 0.9943
500.90 0.9936
501.00 0.9929
501.10 0.9922
501.20 0.9915
501.30 0.9908
501.40 0.9901
501.50 0.9894
501.60 0.9887
501.70 0.988
501.80 0.9872
501.90 0.9865
502.00 0.9858
502.10 0.9851
502.20 0.9844
502.30 0.9837
502.40 0.983
502.50 0.9823
502.60 0.9815
502.70 0.9808
502.80 0.9801
502.90 0.9794
503.00 0.9787
503.10 0.978
503.20 0.9773
503.30 0.9766
503.40 0.9758
503.50 0.9751
503.60 0.9744
503.70 0.9737
503.80 0.973
503.90 0.9723
504.00 0.9716
504.10 0.9709
504.20 0.9702
504.30 0.9694
504.40 0.9687
504.50 0.968
504.60 0.9673
504.70 0.9666
504.80 0.9659
504.90 0.9652
505.00 0.9645
505.10 0.9638
505.20 0.9631
505.30 0.9624
505.40 0.9617
505.50 0.9609
505.60 0.9602
505.70 0.9595
505.80 0.9588
505.90 0.9581
506.00 0.9574
506.10 0.9567
506.20 0.956
506.30 0.9553
506.40 0.9546
506.50 0.9539
506.60 0.9532
506.70 0.9525
506.80 0.9518
506.90 0.9511
507.00 0.9504
507.10 0.9497
507.20 0.949
507.30 0.9483
507.40 0.9476
507.50 0.9469
507.60 0.9462
507.70 0.9455
507.80 0.9448
507.90 0.9441
508.00 0.9434
508.10 0.9427
508.20 0.942
508.30 0.9413
508.40 0.9406
508.50 0.9399
508.60 0.9392
508.70 0.9385
508.80 0.9378
508.90 0.9371
509.00 0.9365
509.10 0.9358
509.20 0.9351
509.30 0.9344
509.40 0.9337
509.50 0.933
509.60 0.9323
509.70 0.9316
509.80 0.9309
509.90 0.9302
510.00 0.9296
510.10 0.9289
510.20 0.9282
510.30 0.9275
510.40 0.9268
510.50 0.9261
510.60 0.9255
510.70 0.9248
510.80 0.9241
510.90 0.9234
511.00 0.9227
511.10 0.922
511.20 0.9214
511.30 0.9207
511.40 0.92
511.50 0.9193
511.60 0.9186
511.70 0.918
511.80 0.9173
511.90 0.9166
512.00 0.9159
512.10 0.9153
512.20 0.9146
512.30 0.9139
512.40 0.9132
512.50 0.9126
512.60 0.9119
512.70 0.9112
512.80 0.9105
512.90 0.9099
513.00 0.9092
513.10 0.9085
513.20 0.9079
513.30 0.9072
513.40 0.9065
513.50 0.9059
513.60 0.9052
513.70 0.9045
513.80 0.9039
513.90 0.9032
514.00 0.9025
514.10 0.9019
514.20 0.9012
514.30 0.9005
514.40 0.8999
514.50 0.8992
514.60 0.8985
514.70 0.8979
514.80 0.8972
514.90 0.8966
515.00 0.8959
515.10 0.8952
515.20 0.8946
515.30 0.8939
515.40 0.8933
515.50 0.8926
515.60 0.892
515.70 0.8913
515.80 0.8906
515.90 0.89
516.00 0.8893
516.10 0.8887
516.20 0.888
516.30 0.8874
516.40 0.8867
516.50 0.8861
516.60 0.8854
516.70 0.8848
516.80 0.8841
516.90 0.8835
517.00 0.8828
517.10 0.8822
517.20 0.8815
517.30 0.8809
517.40 0.8802
517.50 0.8796
517.60 0.8789
517.70 0.8783
517.80 0.8777
517.90 0.877
518.00 0.8764
518.10 0.8757
518.20 0.8751
518.30 0.8744
518.40 0.8738
518.50 0.8732
518.60 0.8725
518.70 0.8719
518.80 0.8712
518.90 0.8706
519.00 0.87
519.10 0.8693
519.20 0.8687
519.30 0.8681
519.40 0.8674
519.50 0.8668
519.60 0.8662
519.70 0.8655
519.80 0.8649
519.90 0.8643
520.00 0.8636
520.10 0.863
520.20 0.8624
520.30 0.8617
520.40 0.8611
520.50 0.8605
520.60 0.8599
520.70 0.8592
520.80 0.8586
520.90 0.858
521.00 0.8573
521.10 0.8567
521.20 0.8561
521.30 0.8555
521.40 0.8548
521.50 0.8542
521.60 0.8536
521.70 0.853
521.80 0.8524
521.90 0.8517
522.00 0.8511
522.10 0.8505
522.20 0.8499
522.30 0.8493
522.40 0.8486
522.50 0.848
522.60 0.8474
522.70 0.8468
522.80 0.8462
522.90 0.8456
523.00 0.8449
523.10 0.8443
523.20 0.8437
523.30 0.8431
523.40 0.8425
523.50 0.8419
523.60 0.8413
523.70 0.8406
523.80 0.84
523.90 0.8394
524.00 0.8388
524.10 0.8382
524.20 0.8376
524.30 0.837
524.40 0.8364
524.50 0.8358
524.60 0.8352
524.70 0.8346
524.80 0.834
524.90 0.8334
525.00 0.8327
525.10 0.8321
525.20 0.8315
525.30 0.8309
525.40 0.8303
525.50 0.8297
525.60 0.8291
525.70 0.8285
525.80 0.8279
525.90 0.8273
526.00 0.8267
526.10 0.8261
526.20 0.8255
526.30 0.8249
526.40 0.8243
526.50 0.8237
526.60 0.8232
526.70 0.8226
526.80 0.822
526.90 0.8214
527.00 0.8208
527.10 0.8202
527.20 0.8196
527.30 0.819
527.40 0.8184
527.50 0.8178
527.60 0.8172
527.70 0.8166
527.80 0.816
527.90 0.8155
528.00 0.8149
528.10 0.8143
528.20 0.8137
528.30 0.8131
528.40 0.8125
528.50 0.8119
528.60 0.8113
528.70 0.8108
528.80 0.8102
528.90 0.8096
529.00 0.809
529.10 0.8084
529.20 0.8078
529.30 0.8073
529.40 0.8067
529.50 0.8061
529.60 0.8055
529.70 0.8049
529.80 0.8044
529.90 0.8038
530.00 0.8032
530.10 0.8026
530.20 0.8021
530.30 0.8015
530.40 0.8009
530.50 0.8003
530.60 0.7997
530.70 0.7992
530.80 0.7986
530.90 0.798
531.00 0.7975
531.10 0.7969
531.20 0.7963
531.30 0.7957
531.40 0.7952
531.50 0.7946
531.60 0.794
531.70 0.7935
531.80 0.7929
531.90 0.7923
532.00 0.7918
532.10 0.7912
532.20 0.7906
532.30 0.7901
532.40 0.7895
532.50 0.7889
532.60 0.7884
532.70 0.7878
532.80 0.7872
532.90 0.7867
533.00 0.7861
533.10 0.7855
533.20 0.785
533.30 0.7844
533.40 0.7839
533.50 0.7833
533.60 0.7827
533.70 0.7822
533.80 0.7816
533.90 0.7811
534.00 0.7805
534.10 0.7799
534.20 0.7794
534.30 0.7788
534.40 0.7783
534.50 0.7777
534.60 0.7772
534.70 0.7766
534.80 0.7761
534.90 0.7755
535.00 0.7749
535.10 0.7744
535.20 0.7738
535.30 0.7733
535.40 0.7727
535.50 0.7722
535.60 0.7716
535.70 0.7711
535.80 0.7705
535.90 0.77
536.00 0.7694
536.10 0.7689
536.20 0.7684
536.30 0.7678
536.40 0.7673
536.50 0.7667
536.60 0.7662
536.70 0.7656
536.80 0.7651
536.90 0.7645
537.00 0.764
537.10 0.7634
537.20 0.7629
537.30 0.7624
537.40 0.7618
537.50 0.7613
537.60 0.7607
537.70 0.7602
537.80 0.7597
537.90 0.7591
538.00 0.7586
538.10 0.758
538.20 0.7575
538.30 0.757
538.40 0.7564
538.50 0.7559
538.60 0.7554
538.70 0.7548
538.80 0.7543
538.90 0.7538
539.00 0.7532
539.10 0.7527
539.20 0.7522
539.30 0.7516
539.40 0.7511
539.50 0.7506
539.60 0.75
539.70 0.7495
539.80 0.749
539.90 0.7484
540.00 0.7479
540.10 0.7474
540.20 0.7469
540.30 0.7463
540.40 0.7458
540.50 0.7453
540.60 0.7448
540.70 0.7442
540.80 0.7437
540.90 0.7432
541.00 0.7427
541.10 0.7421
541.20 0.7416
541.30 0.7411
541.40 0.7406
541.50 0.74
541.60 0.7395
541.70 0.739
541.80 0.7385
541.90 0.738
542.00 0.7374
542.10 0.7369
542.20 0.7364
542.30 0.7359
542.40 0.7354
542.50 0.7348
542.60 0.7343
542.70 0.7338
542.80 0.7333
542.90 0.7328
543.00 0.7323
543.10 0.7317
543.20 0.7312
543.30 0.7307
543.40 0.7302
543.50 0.7297
543.60 0.7292
543.70 0.7287
543.80 0.7282
543.90 0.7276
544.00 0.7271
544.10 0.7266
544.20 0.7261
544.30 0.7256
544.40 0.7251
544.50 0.7246
544.60 0.7241
544.70 0.7236
544.80 0.7231
544.90 0.7226
545.00 0.722
545.10 0.7215
545.20 0.721
545.30 0.7205
545.40 0.72
545.50 0.7195
545.60 0.719
545.70 0.7185
545.80 0.718
545.90 0.7175
546.00 0.717
546.10 0.7165
546.20 0.716
546.30 0.7155
546.40 0.715
546.50 0.7145
546.60 0.714
546.70 0.7135
546.80 0.713
546.90 0.7125
547.00 0.712
547.10 0.7115
547.20 0.711
547.30 0.7105
547.40 0.71
547.50 0.7095
547.60 0.709
547.70 0.7085
547.80 0.708
547.90 0.7076
548.00 0.7071
548.10 0.7066
548.20 0.7061
548.30 0.7056
548.40 0.7051
548.50 0.7046
548.60 0.7041
548.70 0.7036
548.80 0.7031
548.90 0.7026
549.00 0.7022
549.10 0.7017
549.20 0.7012
549.30 0.7007
549.40 0.7002
549.50 0.6997
549.60 0.6992
549.70 0.6987
549.80 0.6983
549.90 0.6978
550.00 0.6973
550.10 0.6968
550.20 0.6963
550.30 0.6958
550.40 0.6954
550.50 0.6949
550.60 0.6944
550.70 0.6939
550.80 0.6934
550.90 0.6929
551.00 0.6925
551.10 0.692
551.20 0.6915
551.30 0.691
551.40 0.6905
551.50 0.6901
551.60 0.6896
551.70 0.6891
551.80 0.6886
551.90 0.6882
552.00 0.6877
552.10 0.6872
552.20 0.6867
552.30 0.6863
552.40 0.6858
552.50 0.6853
552.60 0.6848
552.70 0.6844
552.80 0.6839
552.90 0.6834
553.00 0.6829
553.10 0.6825
553.20 0.682
553.30 0.6815
553.40 0.6811
553.50 0.6806
553.60 0.6801
553.70 0.6796
553.80 0.6792
553.90 0.6787
554.00 0.6782
554.10 0.6778
554.20 0.6773
554.30 0.6768
554.40 0.6764
554.50 0.6759
554.60 0.6754
554.70 0.675
554.80 0.6745
554.90 0.674
555.00 0.6736
555.10 0.6731
555.20 0.6726
555.30 0.6722
555.40 0.6717
555.50 0.6713
555.60 0.6708
555.70 0.6703
555.80 0.6699
555.90 0.6694
556.00 0.669
556.10 0.6685
556.20 0.668
556.30 0.6676
556.40 0.6671
556.50 0.6667
556.60 0.6662
556.70 0.6657
556.80 0.6653
556.90 0.6648
557.00 0.6644
557.10 0.6639
557.20 0.6635
557.30 0.663
557.40 0.6626
557.50 0.6621
557.60 0.6616
557.70 0.6612
557.80 0.6607
557.90 0.6603
558.00 0.6598
558.10 0.6594
558.20 0.6589
558.30 0.6585
558.40 0.658
558.50 0.6576
558.60 0.6571
558.70 0.6567
558.80 0.6562
558.90 0.6558
559.00 0.6553
559.10 0.6549
559.20 0.6544
559.30 0.654
559.40 0.6535
559.50 0.6531
559.60 0.6526
559.70 0.6522
559.80 0.6518
559.90 0.6513
560.00 0.6509
560.10 0.6504
560.20 0.65
560.30 0.6495
560.40 0.6491
560.50 0.6486
560.60 0.6482
560.70 0.6478
560.80 0.6473
560.90 0.6469
561.00 0.6464
561.10 0.646
561.20 0.6456
561.30 0.6451
561.40 0.6447
561.50 0.6442
561.60 0.6438
561.70 0.6434
561.80 0.6429
561.90 0.6425
562.00 0.642
562.10 0.6416
562.20 0.6412
562.30 0.6407
562.40 0.6403
562.50 0.6399
562.60 0.6394
562.70 0.639
562.80 0.6386
562.90 0.6381
563.00 0.6377
563.10 0.6373
563.20 0.6368
563.30 0.6364
563.40 0.636
563.50 0.6355
563.60 0.6351
563.70 0.6347
563.80 0.6342
563.90 0.6338
564.00 0.6334
564.10 0.633
564.20 0.6325
564.30 0.6321
564.40 0.6317
564.50 0.6312
564.60 0.6308
564.70 0.6304
564.80 0.63
564.90 0.6295
565.00 0.6291
565.10 0.6287
565.20 0.6283
565.30 0.6278
565.40 0.6274
565.50 0.627
565.60 0.6266
565.70 0.6261
565.80 0.6257
565.90 0.6253
566.00 0.6249
566.10 0.6244
566.20 0.624
566.30 0.6236
566.40 0.6232
566.50 0.6228
566.60 0.6223
566.70 0.6219
566.80 0.6215
566.90 0.6211
567.00 0.6207
567.10 0.6202
567.20 0.6198
567.30 0.6194
567.40 0.619
567.50 0.6186
567.60 0.6181
567.70 0.6177
567.80 0.6173
567.90 0.6169
568.00 0.6165
568.10 0.6161
568.20 0.6157
568.30 0.6152
568.40 0.6148
568.50 0.6144
568.60 0.614
568.70 0.6136
568.80 0.6132
568.90 0.6128
569.00 0.6123
569.10 0.6119
569.20 0.6115
569.30 0.6111
569.40 0.6107
569.50 0.6103
569.60 0.6099
569.70 0.6095
569.80 0.6091
569.90 0.6087
570.00 0.6082
570.10 0.6078
570.20 0.6074
570.30 0.607
570.40 0.6066
570.50 0.6062
570.60 0.6058
570.70 0.6054
570.80 0.605
570.90 0.6046
571.00 0.6042
571.10 0.6038
571.20 0.6034
571.30 0.603
571.40 0.6026
571.50 0.6022
571.60 0.6018
571.70 0.6013
571.80 0.6009
571.90 0.6005
572.00 0.6001
572.10 0.5997
572.20 0.5993
572.30 0.5989
572.40 0.5985
572.50 0.5981
572.60 0.5977
572.70 0.5973
572.80 0.5969
572.90 0.5965
573.00 0.5961
573.10 0.5957
573.20 0.5953
573.30 0.5949
573.40 0.5946
573.50 0.5942
573.60 0.5938
573.70 0.5934
573.80 0.593
573.90 0.5926
574.00 0.5922
574.10 0.5918
574.20 0.5914
574.30 0.591
574.40 0.5906
574.50 0.5902
574.60 0.5898
574.70 0.5894
574.80 0.589
574.90 0.5886
575.00 0.5882
575.10 0.5878
575.20 0.5875
575.30 0.5871
575.40 0.5867
575.50 0.5863
575.60 0.5859
575.70 0.5855
575.80 0.5851
575.90 0.5847
576.00 0.5843
576.10 0.5839
576.20 0.5836
576.30 0.5832
576.40 0.5828
576.50 0.5824
576.60 0.582
576.70 0.5816
576.80 0.5812
576.90 0.5809
577.00 0.5805
577.10 0.5801
577.20 0.5797
577.30 0.5793
577.40 0.5789
577.50 0.5785
577.60 0.5782
577.70 0.5778
577.80 0.5774
577.90 0.577
578.00 0.5766
578.10 0.5762
578.20 0.5759
578.30 0.5755
578.40 0.5751
578.50 0.5747
578.60 0.5743
578.70 0.574
578.80 0.5736
578.90 0.5732
579.00 0.5728
579.10 0.5724
579.20 0.5721
579.30 0.5717
579.40 0.5713
579.50 0.5709
579.60 0.5706
579.70 0.5702
579.80 0.5698
579.90 0.5694
580.00 0.5691
580.10 0.5687
580.20 0.5683
580.30 0.5679
580.40 0.5676
580.50 0.5672
580.60 0.5668
580.70 0.5664
580.80 0.5661
580.90 0.5657
581.00 0.5653
581.10 0.5649
581.20 0.5646
581.30 0.5642
581.40 0.5638
581.50 0.5634
581.60 0.5631
581.70 0.5627
581.80 0.5623
581.90 0.562
582.00 0.5616
582.10 0.5612
582.20 0.5609
582.30 0.5605
582.40 0.5601
582.50 0.5598
582.60 0.5594
582.70 0.559
582.80 0.5586
582.90 0.5583
583.00 0.5579
583.10 0.5575
583.20 0.5572
583.30 0.5568
583.40 0.5565
583.50 0.5561
583.60 0.5557
583.70 0.5554
583.80 0.555
583.90 0.5546
584.00 0.5543
584.10 0.5539
584.20 0.5535
584.30 0.5532
584.40 0.5528
584.50 0.5524
584.60 0.5521
584.70 0.5517
584.80 0.5514
584.90 0.551
585.00 0.5506
585.10 0.5503
585.20 0.5499
585.30 0.5496
585.40 0.5492
585.50 0.5488
585.60 0.5485
585.70 0.5481
585.80 0.5478
585.90 0.5474
586.00 0.547
586.10 0.5467
586.20 0.5463
586.30 0.546
586.40 0.5456
586.50 0.5453
586.60 0.5449
586.70 0.5446
586.80 0.5442
586.90 0.5438
587.00 0.5435
587.10 0.5431
587.20 0.5428
587.30 0.5424
587.40 0.5421
587.50 0.5417
587.60 0.5414
587.70 0.541
587.80 0.5407
587.90 0.5403
588.00 0.5399
588.10 0.5396
588.20 0.5392
588.30 0.5389
588.40 0.5385
588.50 0.5382
588.60 0.5378
588.70 0.5375
588.80 0.5371
588.90 0.5368
589.00 0.5364
589.10 0.5361
589.20 0.5357
589.30 0.5354
589.40 0.535
589.50 0.5347
589.60 0.5344
589.70 0.534
589.80 0.5337
589.90 0.5333
590.00 0.533
590.10 0.5326
590.20 0.5323
590.30 0.5319
590.40 0.5316
590.50 0.5312
590.60 0.5309
590.70 0.5305
590.80 0.5302
590.90 0.5299
591.00 0.5295
591.10 0.5292
591.20 0.5288
591.30 0.5285
591.40 0.5281
591.50 0.5278
591.60 0.5275
591.70 0.5271
591.80 0.5268
591.90 0.5264
592.00 0.5261
592.10 0.5258
592.20 0.5254
592.30 0.5251
592.40 0.5247
592.50 0.5244
592.60 0.5241
592.70 0.5237
592.80 0.5234
592.90 0.523
593.00 0.5227
593.10 0.5224
593.20 0.522
593.30 0.5217
593.40 0.5214
593.50 0.521
593.60 0.5207
593.70 0.5203
593.80 0.52
593.90 0.5197
594.00 0.5193
594.10 0.519
594.20 0.5187
594.30 0.5183
594.40 0.518
594.50 0.5177
594.60 0.5173
594.70 0.517
594.80 0.5167
594.90 0.5163
595.00 0.516
595.10 0.5157
595.20 0.5153
595.30 0.515
595.40 0.5147
595.50 0.5143
595.60 0.514
595.70 0.5137
595.80 0.5133
595.90 0.513
596.00 0.5127
596.10 0.5124
596.20 0.512
596.30 0.5117
596.40 0.5114
596.50 0.511
596.60 0.5107
596.70 0.5104
596.80 0.5101
596.90 0.5097
597.00 0.5094
597.10 0.5091
597.20 0.5087
597.30 0.5084
597.40 0.5081
597.50 0.5078
597.60 0.5074
597.70 0.5071
597.80 0.5068
597.90 0.5065
598.00 0.5061
598.10 0.5058
598.20 0.5055
598.30 0.5052
598.40 0.5048
598.50 0.5045
598.60 0.5042
598.70 0.5039
598.80 0.5035
598.90 0.5032
599.00 0.5029
599.10 0.5026
599.20 0.5023
599.30 0.5019
599.40 0.5016
599.50 0.5013
599.60 0.501
599.70 0.5007
599.80 0.5003
599.90 0.5
600.00 0.4997
600.10 0.4994
600.20 0.4991
600.30 0.4987
600.40 0.4984
600.50 0.4981
600.60 0.4978
600.70 0.4975
600.80 0.4971
600.90 0.4968
601.00 0.4965
601.10 0.4962
601.20 0.4959
601.30 0.4956
601.40 0.4952
601.50 0.4949
601.60 0.4946
601.70 0.4943
601.80 0.494
601.90 0.4937
602.00 0.4933
602.10 0.493
602.20 0.4927
602.30 0.4924
602.40 0.4921
602.50 0.4918
602.60 0.4915
602.70 0.4912
602.80 0.4908
602.90 0.4905
603.00 0.4902
603.10 0.4899
603.20 0.4896
603.30 0.4893
603.40 0.489
603.50 0.4887
603.60 0.4883
603.70 0.488
603.80 0.4877
603.90 0.4874
604.00 0.4871
604.10 0.4868
604.20 0.4865
604.30 0.4862
604.40 0.4859
604.50 0.4856
604.60 0.4853
604.70 0.4849
604.80 0.4846
604.90 0.4843
605.00 0.484
605.10 0.4837
605.20 0.4834
605.30 0.4831
605.40 0.4828
605.50 0.4825
605.60 0.4822
605.70 0.4819
605.80 0.4816
605.90 0.4813
606.00 0.481
606.10 0.4807
606.20 0.4804
606.30 0.4801
606.40 0.4797
606.50 0.4794
606.60 0.4791
606.70 0.4788
606.80 0.4785
606.90 0.4782
607.00 0.4779
607.10 0.4776
607.20 0.4773
607.30 0.477
607.40 0.4767
607.50 0.4764
607.60 0.4761
607.70 0.4758
607.80 0.4755
607.90 0.4752
608.00 0.4749
608.10 0.4746
608.20 0.4743
608.30 0.474
608.40 0.4737
608.50 0.4734
608.60 0.4731
608.70 0.4728
608.80 0.4725
608.90 0.4722
609.00 0.4719
609.10 0.4716
609.20 0.4713
609.30 0.471
609.40 0.4707
609.50 0.4704
609.60 0.4701
609.70 0.4698
609.80 0.4696
609.90 0.4693
610.00 0.469
610.10 0.4687
610.20 0.4684
610.30 0.4681
610.40 0.4678
610.50 0.4675
610.60 0.4672
610.70 0.4669
610.80 0.4666
610.90 0.4663
611.00 0.466
611.10 0.4657
611.20 0.4654
611.30 0.4651
611.40 0.4648
611.50 0.4646
611.60 0.4643
611.70 0.464
611.80 0.4637
611.90 0.4634
612.00 0.4631
612.10 0.4628
612.20 0.4625
612.30 0.4622
612.40 0.4619
612.50 0.4616
612.60 0.4614
612.70 0.4611
612.80 0.4608
612.90 0.4605
613.00 0.4602
613.10 0.4599
613.20 0.4596
613.30 0.4593
613.40 0.459
613.50 0.4588
613.60 0.4585
613.70 0.4582
613.80 0.4579
613.90 0.4576
614.00 0.4573
614.10 0.457
614.20 0.4568
614.30 0.4565
614.40 0.4562
614.50 0.4559
614.60 0.4556
614.70 0.4553
614.80 0.455
614.90 0.4548
615.00 0.4545
615.10 0.4542
615.20 0.4539
615.30 0.4536
615.40 0.4533
615.50 0.4531
615.60 0.4528
615.70 0.4525
615.80 0.4522
615.90 0.4519
616.00 0.4516
616.10 0.4514
616.20 0.4511
616.30 0.4508
616.40 0.4505
616.50 0.4502
616.60 0.45
616.70 0.4497
616.80 0.4494
616.90 0.4491
617.00 0.4488
617.10 0.4485
617.20 0.4483
617.30 0.448
617.40 0.4477
617.50 0.4474
617.60 0.4472
617.70 0.4469
617.80 0.4466
617.90 0.4463
618.00 0.446
618.10 0.4458
618.20 0.4455
618.30 0.4452
618.40 0.4449
618.50 0.4447
618.60 0.4444
618.70 0.4441
618.80 0.4438
618.90 0.4435
619.00 0.4433
619.10 0.443
619.20 0.4427
619.30 0.4424
619.40 0.4422
619.50 0.4419
619.60 0.4416
619.70 0.4413
619.80 0.4411
619.90 0.4408
620.00 0.4405
620.10 0.4403
620.20 0.44
620.30 0.4397
620.40 0.4394
620.50 0.4392
620.60 0.4389
620.70 0.4386
620.80 0.4383
620.90 0.4381
621.00 0.4378
621.10 0.4375
621.20 0.4373
621.30 0.437
621.40 0.4367
621.50 0.4364
621.60 0.4362
621.70 0.4359
621.80 0.4356
621.90 0.4354
622.00 0.4351
622.10 0.4348
622.20 0.4346
622.30 0.4343
622.40 0.434
622.50 0.4337
622.60 0.4335
622.70 0.4332
622.80 0.4329
622.90 0.4327
623.00 0.4324
623.10 0.4321
623.20 0.4319
623.30 0.4316
623.40 0.4313
623.50 0.4311
623.60 0.4308
623.70 0.4305
623.80 0.4303
623.90 0.43
624.00 0.4297
624.10 0.4295
624.20 0.4292
624.30 0.4289
624.40 0.4287
624.50 0.4284
624.60 0.4281
624.70 0.4279
624.80 0.4276
624.90 0.4274
625.00 0.4271
625.10 0.4268
625.20 0.4266
625.30 0.4263
625.40 0.426
625.50 0.4258
625.60 0.4255
625.70 0.4252
625.80 0.425
625.90 0.4247
626.00 0.4245
626.10 0.4242
626.20 0.4239
626.30 0.4237
626.40 0.4234
626.50 0.4231
626.60 0.4229
626.70 0.4226
626.80 0.4224
626.90 0.4221
627.00 0.4218
627.10 0.4216
627.20 0.4213
627.30 0.4211
627.40 0.4208
627.50 0.4205
627.60 0.4203
627.70 0.42
627.80 0.4198
627.90 0.4195
628.00 0.4193
628.10 0.419
628.20 0.4187
628.30 0.4185
628.40 0.4182
628.50 0.418
628.60 0.4177
628.70 0.4174
628.80 0.4172
628.90 0.4169
629.00 0.4167
629.10 0.4164
629.20 0.4162
629.30 0.4159
629.40 0.4157
629.50 0.4154
629.60 0.4151
629.70 0.4149
629.80 0.4146
629.90 0.4144
630.00 0.4141
630.10 0.4139
630.20 0.4136
630.30 0.4134
630.40 0.4131
630.50 0.4128
630.60 0.4126
630.70 0.4123
630.80 0.4121
630.90 0.4118
631.00 0.4116
631.10 0.4113
631.20 0.4111
631.30 0.4108
631.40 0.4106
631.50 0.4103
631.60 0.4101
631.70 0.4098
631.80 0.4096
631.90 0.4093
632.00 0.409
632.10 0.4088
632.20 0.4085
632.30 0.4083
632.40 0.408
632.50 0.4078
632.60 0.4075
632.70 0.4073
632.80 0.407
632.90 0.4068
633.00 0.4065
633.10 0.4063
633.20 0.406
633.30 0.4058
633.40 0.4055
633.50 0.4053
633.60 0.405
633.70 0.4048
633.80 0.4045
633.90 0.4043
634.00 0.404
634.10 0.4038
634.20 0.4035
634.30 0.4033
634.40 0.403
634.50 0.4028
634.60 0.4025
634.70 0.4023
634.80 0.4021
634.90 0.4018
635.00 0.4016
635.10 0.4013
635.20 0.4011
635.30 0.4008
635.40 0.4006
635.50 0.4003
635.60 0.4001
635.70 0.3998
635.80 0.3996
635.90 0.3993
636.00 0.3991
636.10 0.3988
636.20 0.3986
636.30 0.3983
636.40 0.3981
636.50 0.3978
636.60 0.3976
636.70 0.3974
636.80 0.3971
636.90 0.3969
637.00 0.3966
637.10 0.3964
637.20 0.3961
637.30 0.3959
637.40 0.3956
637.50 0.3954
637.60 0.3951
637.70 0.3949
637.80 0.3947
637.90 0.3944
638.00 0.3942
638.10 0.3939
638.20 0.3937
638.30 0.3934
638.40 0.3932
638.50 0.3929
638.60 0.3927
638.70 0.3924
638.80 0.3922
638.90 0.392
639.00 0.3917
639.10 0.3915
639.20 0.3912
639.30 0.391
639.40 0.3907
639.50 0.3905
639.60 0.3902
639.70 0.39
639.80 0.3897
639.90 0.3895
640.00 0.3893
640.10 0.389
640.20 0.3888
640.30 0.3885
640.40 0.3883
640.50 0.388
640.60 0.3878
640.70 0.3875
640.80 0.3873
640.90 0.3871
641.00 0.3868
641.10 0.3866
641.20 0.3863
641.30 0.3861
641.40 0.3858
641.50 0.3856
641.60 0.3853
641.70 0.3851
641.80 0.3848
641.90 0.3846
642.00 0.3843
642.10 0.3841
642.20 0.3839
642.30 0.3836
642.40 0.3834
642.50 0.3831
642.60 0.3829
642.70 0.3826
642.80 0.3824
642.90 0.3821
643.00 0.3819
643.10 0.3816
643.20 0.3814
643.30 0.3811
643.40 0.3809
643.50 0.3806
643.60 0.3804
643.70 0.3801
643.80 0.3799
643.90 0.3796
644.00 0.3794
644.10 0.3791
644.20 0.3788
644.30 0.3786
644.40 0.3783
644.50 0.3781
644.60 0.3778
644.70 0.3776
644.80 0.3773
644.90 0.3771
645.00 0.3768
645.10 0.3765
645.20 0.3763
645.30 0.376
645.40 0.3758
645.50 0.3755
645.60 0.3752
645.70 0.375
645.80 0.3747
645.90 0.3744
646.00 0.3742
646.10 0.3739
646.20 0.3736
646.30 0.3734
646.40 0.3731
646.50 0.3728
646.60 0.3725
646.70 0.3723
646.80 0.372
646.90 0.3717
647.00 0.3714
647.10 0.3712
647.20 0.3709
647.30 0.3706
647.40 0.3703
647.50 0.37
647.60 0.3697
647.70 0.3694
647.80 0.3691
647.90 0.3688
648.00 0.3685
648.10 0.3682
648.20 0.3679
648.30 0.3676
648.40 0.3673
648.50 0.367
648.60 0.3667
648.70 0.3663
648.80 0.366
648.90 0.3657
649.00 0.3654
649.10 0.365
649.20 0.3647
649.30 0.3644
649.40 0.364
649.50 0.3636
649.60 0.3633
649.70 0.3629
649.80 0.3625
649.90 0.3622
650.00 0.3618
650.10 0.3614
650.20 0.3611
650.30 0.3607
650.40 0.3603
650.50 0.3598
650.60 0.3594
650.70 0.3589
650.80 0.3585
650.90 0.3581
651.00 0.3576
651.10 0.3572
651.20 0.3567
651.30 0.3563
651.40 0.3557
651.50 0.3552
651.60 0.3546
651.70 0.3541
651.80 0.3535
651.90 0.353
652.00 0.3524
652.10 0.3519
652.20 0.3513
652.30 0.3507
652.40 0.35
652.50 0.3493
652.60 0.3485
652.70 0.3478
652.80 0.3471
652.90 0.3463
653.00 0.3456
653.10 0.3449
653.20 0.3441
653.30 0.3433
653.40 0.3423
653.50 0.3413
653.60 0.3403
653.70 0.3393
653.80 0.3382
653.90 0.3372
654.00 0.3362
654.10 0.3352
654.20 0.3342
654.30 0.3331
654.40 0.3318
654.50 0.3305
654.60 0.3292
654.70 0.3279
654.80 0.3265
654.90 0.325
655.00 0.3235
655.10 0.322
655.20 0.3205
655.30 0.3189
655.40 0.3172
655.50 0.3156
655.60 0.3138
655.70 0.3121
655.80 0.3103
655.90 0.3084
656.00 0.3064
656.10 0.3044
656.20 0.3064
656.30 0.3187
656.40 0.3036
656.50 0.3044
656.60 0.3061
656.70 0.3077
656.80 0.3092
656.90 0.3106
657.00 0.312
657.10 0.3133
657.20 0.3146
657.30 0.3159
657.40 0.317
657.50 0.3182
657.60 0.3193
657.70 0.3205
657.80 0.3216
657.90 0.3225
658.00 0.3234
658.10 0.3243
658.20 0.3252
658.30 0.3261
658.40 0.3267
658.50 0.3273
658.60 0.3279
658.70 0.3285
658.80 0.3291
658.90 0.3297
659.00 0.3304
659.10 0.331
659.20 0.3316
659.30 0.3321
659.40 0.3324
659.50 0.3328
659.60 0.3331
659.70 0.3334
659.80 0.3337
659.90 0.334
660.00 0.3344
660.10 0.3347
660.20 0.335
660.30 0.3353
660.40 0.3354
660.50 0.3355
660.60 0.3357
660.70 0.3358
660.80 0.3359
660.90 0.336
661.00 0.3362
661.10 0.3363
661.20 0.3364
661.30 0.3365
661.40 0.3365
661.50 0.3366
661.60 0.3366
661.70 0.3366
661.80 0.3366
661.90 0.3366
662.00 0.3366
662.10 0.3366
662.20 0.3367
662.30 0.3367
662.40 0.3366
662.50 0.3365
662.60 0.3365
662.70 0.3364
662.80 0.3364
662.90 0.3363
663.00 0.3363
663.10 0.3362
663.20 0.3362
663.30 0.3361
663.40 0.336
663.50 0.3359
663.60 0.3358
663.70 0.3357
663.80 0.3356
663.90 0.3355
664.00 0.3354
664.10 0.3353
664.20 0.3352
664.30 0.3351
664.40 0.335
664.50 0.3348
664.60 0.3347
664.70 0.3346
664.80 0.3344
664.90 0.3343
665.00 0.3342
665.10 0.3341
665.20 0.3339
665.30 0.3338
665.40 0.3337
665.50 0.3335
665.60 0.3334
665.70 0.3332
665.80 0.3331
665.90 0.3329
666.00 0.3328
666.10 0.3326
666.20 0.3325
666.30 0.3323
666.40 0.3322
666.50 0.332
666.60 0.3319
666.70 0.3317
666.80 0.3316
666.90 0.3314
667.00 0.3313
667.10 0.3311
667.20 0.3309
667.30 0.3308
667.40 0.3306
667.50 0.3305
667.60 0.3303
667.70 0.3301
667.80 0.33
667.90 0.3298
668.00 0.3296
668.10 0.3295
668.20 0.3293
668.30 0.3291
668.40 0.329
668.50 0.3288
668.60 0.3286
668.70 0.3285
668.80 0.3283
668.90 0.3281
669.00 0.328
669.10 0.3278
669.20 0.3276
669.30 0.3274
669.40 0.3273
669.50 0.3271
669.60 0.3269
669.70 0.3268
669.80 0.3266
669.90 0.3264
670.00 0.3262
670.10 0.3261
670.20 0.3259
670.30 0.3257
670.40 0.3256
670.50 0.3254
670.60 0.3252
670.70 0.325
670.80 0.3249
670.90 0.3247
671.00 0.3245
671.10 0.3243
671.20 0.3242
671.30 0.324
671.40 0.3238
671.50 0.3236
671.60 0.3235
671.70 0.3233
671.80 0.3231
671.90 0.3229
672.00 0.3228
672.10 0.3226
672.20 0.3224
672.30 0.3222
672.40 0.3221
672.50 0.3219
672.60 0.3217
672.70 0.3215
672.80 0.3213
672.90 0.3212
673.00 0.321
673.10 0.3208
673.20 0.3206
673.30 0.3205
673.40 0.3203
673.50 0.3201
673.60 0.3199
673.70 0.3198
673.80 0.3196
673.90 0.3194
674.00 0.3192
674.10 0.3191
674.20 0.3189
674.30 0.3187
674.40 0.3185
674.50 0.3184
674.60 0.3182
674.70 0.318
674.80 0.3178
674.90 0.3177
675.00 0.3175
675.10 0.3173
675.20 0.3171
675.30 0.3169
675.40 0.3168
675.50 0.3166
675.60 0.3164
675.70 0.3162
675.80 0.3161
675.90 0.3159
676.00 0.3157
676.10 0.3155
676.20 0.3154
676.30 0.3152
676.40 0.315
676.50 0.3148
676.60 0.3147
676.70 0.3145
676.80 0.3143
676.90 0.3141
677.00 0.314
677.10 0.3138
677.20 0.3136
677.30 0.3134
677.40 0.3133
677.50 0.3131
677.60 0.3129
677.70 0.3127
677.80 0.3126
677.90 0.3124
678.00 0.3122
678.10 0.312
678.20 0.3119
678.30 0.3117
678.40 0.3115
678.50 0.3113
678.60 0.3112
678.70 0.311
678.80 0.3108
678.90 0.3107
679.00 0.3105
679.10 0.3103
679.20 0.3101
679.30 0.31
679.40 0.3098
679.50 0.3096
679.60 0.3094
679.70 0.3093
679.80 0.3091
679.90 0.3089
680.00 0.3087
680.10 0.3086
680.20 0.3084
680.30 0.3082
680.40 0.3081
680.50 0.3079
680.60 0.3077
680.70 0.3075
680.80 0.3074
680.90 0.3072
681.00 0.307
681.10 0.3069
681.20 0.3067
681.30 0.3065
681.40 0.3063
681.50 0.3062
681.60 0.306
681.70 0.3058
681.80 0.3057
681.90 0.3055
682.00 0.3053
682.10 0.3051
682.20 0.305
682.30 0.3048
682.40 0.3046
682.50 0.3045
682.60 0.3043
682.70 0.3041
682.80 0.304
682.90 0.3038
683.00 0.3036
683.10 0.3034
683.20 0.3033
683.30 0.3031
683.40 0.3029
683.50 0.3028
683.60 0.3026
683.70 0.3024
683.80 0.3023
683.90 0.3021
684.00 0.3019
684.10 0.3018
684.20 0.3016
684.30 0.3014
684.40 0.3012
684.50 0.3011
684.60 0.3009
684.70 0.3007
684.80 0.3006
684.90 0.3004
685.00 0.3002
685.10 0.3001
685.20 0.2999
685.30 0.2997
685.40 0.2996
685.50 0.2994
685.60 0.2992
685.70 0.2991
685.80 0.2989
685.90 0.2987
686.00 0.2986
686.10 0.2984
686.20 0.2982
686.30 0.2981
686.40 0.2979
686.50 0.2977
686.60 0.2976
686.70 0.2974
686.80 0.2972
686.90 0.2971
687.00 0.2969
687.10 0.2967
687.20 0.2966
687.30 0.2964
687.40 0.2962
687.50 0.2961
687.60 0.2959
687.70 0.2957
687.80 0.2956
687.90 0.2954
688.00 0.2953
688.10 0.2951
688.20 0.2949
688.30 0.2948
688.40 0.2946
688.50 0.2944
688.60 0.2943
688.70 0.2941
688.80 0.2939
688.90 0.2938
689.00 0.2936
689.10 0.2935
689.20 0.2933
689.30 0.2931
689.40 0.293
689.50 0.2928
689.60 0.2926
689.70 0.2925
689.80 0.2923
689.90 0.2922
690.00 0.292
690.10 0.2918
690.20 0.2917
690.30 0.2915
690.40 0.2913
690.50 0.2912
690.60 0.291
690.70 0.2909
690.80 0.2907
690.90 0.2905
691.00 0.2904
691.10 0.2902
691.20 0.2901
691.30 0.2899
691.40 0.2897
691.50 0.2896
691.60 0.2894
691.70 0.2892
691.80 0.2891
691.90 0.2889
692.00 0.2888
692.10 0.2886
692.20 0.2884
692.30 0.2883
692.40 0.2881
692.50 0.288
692.60 0.2878
692.70 0.2876
692.80 0.2875
692.90 0.2873
693.00 0.2872
693.10 0.287
693.20 0.2869
693.30 0.2867
693.40 0.2865
693.50 0.2864
693.60 0.2862
693.70 0.2861
693.80 0.2859
693.90 0.2857
694.00 0.2856
694.10 0.2854
694.20 0.2853
694.30 0.2851
694.40 0.2849
694.50 0.2848
694.60 0.2846
694.70 0.2845
694.80 0.2843
694.90 0.2842
695.00 0.284
695.10 0.2838
695.20 0.2837
695.30 0.2835
695.40 0.2834
695.50 0.2832
695.60 0.2831
695.70 0.2829
695.80 0.2827
695.90 0.2826
696.00 0.2824
696.10 0.2823
696.20 0.2821
696.30 0.282
696.40 0.2818
696.50 0.2817
696.60 0.2815
696.70 0.2814
696.80 0.2812
696.90 0.281
697.00 0.2809
697.10 0.2807
697.20 0.2806
697.30 0.2804
697.40 0.2803
697.50 0.2801
697.60 0.28
697.70 0.2798
697.80 0.2796
697.90 0.2795
698.00 0.2793
698.10 0.2792
698.20 0.279
698.30 0.2789
698.40 0.2787
698.50 0.2786
698.60 0.2784
698.70 0.2783
698.80 0.2781
698.90 0.278
699.00 0.2778
699.10 0.2777
699.20 0.2775
699.30 0.2773
699.40 0.2772
699.50 0.277
699.60 0.2769
699.70 0.2767
699.80 0.2766
699.90 0.2764
700.00 0.2763
700.10 0.2761
700.20 0.276
700.30 0.2758
700.40 0.2757
700.50 0.2755
700.60 0.2754
700.70 0.2752
700.80 0.2751
700.90 0.2749
701.00 0.2748
701.10 0.2746
701.20 0.2745
701.30 0.2743
701.40 0.2742
701.50 0.274
701.60 0.2739
701.70 0.2737
701.80 0.2736
701.90 0.2734
702.00 0.2733
702.10 0.2731
702.20 0.273
702.30 0.2728
702.40 0.2727
702.50 0.2725
702.60 0.2724
702.70 0.2722
702.80 0.2721
702.90 0.2719
703.00 0.2718
703.10 0.2716
703.20 0.2715
703.30 0.2713
703.40 0.2712
703.50 0.271
703.60 0.2709
703.70 0.2707
703.80 0.2706
703.90 0.2704
704.00 0.2703
704.10 0.2701
704.20 0.27
704.30 0.2698
704.40 0.2697
704.50 0.2695
704.60 0.2694
704.70 0.2693
704.80 0.2691
704.90 0.269
705.00 0.2688
705.10 0.2687
705.20 0.2685
705.30 0.2684
705.40 0.2682
705.50 0.2681
705.60 0.2679
705.70 0.2678
705.80 0.2676
705.90 0.2675
706.00 0.2674
706.10 0.2672
706.20 0.2671
706.30 0.2669
706.40 0.2668
706.50 0.2666
706.60 0.2665
706.70 0.2663
706.80 0.2662
706.90 0.266
707.00 0.2659
707.10 0.2658
707.20 0.2656
707.30 0.2655
707.40 0.2653
707.50 0.2652
707.60 0.265
707.70 0.2649
707.80 0.2647
707.90 0.2646
708.00 0.2645
708.10 0.2643
708.20 0.2642
708.30 0.264
708.40 0.2639
708.50 0.2637
708.60 0.2636
708.70 0.2635
708.80 0.2633
708.90 0.2632
709.00 0.263
709.10 0.2629
709.20 0.2627
709.30 0.2626
709.40 0.2624
709.50 0.2623
709.60 0.2622
709.70 0.262
709.80 0.2619
709.90 0.2617
710.00 0.2616
710.10 0.2614
710.20 0.2613
710.30 0.2612
710.40 0.261
710.50 0.2609
710.60 0.2607
710.70 0.2606
710.80 0.2605
710.90 0.2603
711.00 0.2602
711.10 0.26
711.20 0.2599
711.30 0.2598
711.40 0.2596
711.50 0.2595
711.60 0.2593
711.70 0.2592
711.80 0.2591
711.90 0.2589
712.00 0.2588
712.10 0.2586
712.20 0.2585
712.30 0.2584
712.40 0.2582
712.50 0.2581
712.60 0.2579
712.70 0.2578
712.80 0.2577
712.90 0.2575
713.00 0.2574
713.10 0.2572
713.20 0.2571
713.30 0.257
713.40 0.2568
713.50 0.2567
713.60 0.2565
713.70 0.2564
713.80 0.2563
713.90 0.2561
714.00 0.256
714.10 0.2559
714.20 0.2557
714.30 0.2556
714.40 0.2554
714.50 0.2553
714.60 0.2552
714.70 0.255
714.80 0.2549
714.90 0.2548
715.00 0.2546
715.10 0.2545
715.20 0.2543
715.30 0.2542
715.40 0.2541
715.50 0.2539
715.60 0.2538
715.70 0.2537
715.80 0.2535
715.90 0.2534
716.00 0.2532
716.10 0.2531
716.20 0.253
716.30 0.2528
716.40 0.2527
716.50 0.2526
716.60 0.2524
716.70 0.2523
716.80 0.2522
716.90 0.252
717.00 0.2519
717.10 0.2518
717.20 0.2516
717.30 0.2515
717.40 0.2514
717.50 0.2512
717.60 0.2511
717.70 0.2509
717.80 0.2508
717.90 0.2507
718.00 0.2505
718.10 0.2504
718.20 0.2503
718.30 0.2501
718.40 0.25
718.50 0.2499
718.60 0.2497
718.70 0.2496
718.80 0.2495
718.90 0.2493
719.00 0.2492
719.10 0.2491
719.20 0.2489
719.30 0.2488
719.40 0.2487
719.50 0.2485
719.60 0.2484
719.70 0.2483
719.80 0.2481
719.90 0.248
720.00 0.2479
720.10 0.2477
720.20 0.2476
720.30 0.2475
720.40 0.2473
720.50 0.2472
720.60 0.2471
720.70 0.2469
720.80 0.2468
720.90 0.2467
721.00 0.2465
721.10 0.2464
721.20 0.2463
721.30 0.2462
721.40 0.246
721.50 0.2459
721.60 0.2458
721.70 0.2456
721.80 0.2455
721.90 0.2454
722.00 0.2452
722.10 0.2451
722.20 0.245
722.30 0.2448
722.40 0.2447
722.50 0.2446
722.60 0.2444
722.70 0.2443
722.80 0.2442
722.90 0.2441
723.00 0.2439
723.10 0.2438
723.20 0.2437
723.30 0.2435
723.40 0.2434
723.50 0.2433
723.60 0.2431
723.70 0.243
723.80 0.2429
723.90 0.2428
724.00 0.2426
724.10 0.2425
724.20 0.2424
724.30 0.2422
724.40 0.2421
724.50 0.242
724.60 0.2419
724.70 0.2417
724.80 0.2416
724.90 0.2415
725.00 0.2413
725.10 0.2412
725.20 0.2411
725.30 0.241
725.40 0.2408
725.50 0.2407
725.60 0.2406
725.70 0.2404
725.80 0.2403
725.90 0.2402
726.00 0.2401
726.10 0.2399
726.20 0.2398
726.30 0.2397
726.40 0.2396
726.50 0.2394
726.60 0.2393
726.70 0.2392
726.80 0.239
726.90 0.2389
727.00 0.2388
727.10 0.2387
727.20 0.2385
727.30 0.2384
727.40 0.2383
727.50 0.2382
727.60 0.238
727.70 0.2379
727.80 0.2378
727.90 0.2377
728.00 0.2375
728.10 0.2374
728.20 0.2373
728.30 0.2372
728.40 0.237
728.50 0.2369
728.60 0.2368
728.70 0.2366
728.80 0.2365
728.90 0.2364
729.00 0.2363
729.10 0.2361
729.20 0.236
729.30 0.2359
729.40 0.2358
729.50 0.2356
729.60 0.2355
729.70 0.2354
729.80 0.2353
729.90 0.2351
730.00 0.235
730.10 0.2349
730.20 0.2348
730.30 0.2347
730.40 0.2345
730.50 0.2344
730.60 0.2343
730.70 0.2342
730.80 0.234
730.90 0.2339
731.00 0.2338
731.10 0.2337
731.20 0.2335
731.30 0.2334
731.40 0.2333
731.50 0.2332
731.60 0.2331
731.70 0.2329
731.80 0.2328
731.90 0.2327
732.00 0.2326
732.10 0.2325
732.20 0.2323
732.30 0.2322
732.40 0.2321
732.50 0.232
732.60 0.2318
732.70 0.2317
732.80 0.2316
732.90 0.2315
733.00 0.2314
733.10 0.2312
733.20 0.2311
733.30 0.231
733.40 0.2309
733.50 0.2308
733.60 0.2306
733.70 0.2305
733.80 0.2304
733.90 0.2303
734.00 0.2301
734.10 0.23
734.20 0.2299
734.30 0.2298
734.40 0.2297
734.50 0.2295
734.60 0.2294
734.70 0.2293
734.80 0.2292
734.90 0.2291
735.00 0.2289
735.10 0.2288
735.20 0.2287
735.30 0.2286
735.40 0.2285
735.50 0.2283
735.60 0.2282
735.70 0.2281
735.80 0.228
735.90 0.2279
736.00 0.2277
736.10 0.2276
736.20 0.2275
736.30 0.2274
736.40 0.2273
736.50 0.2271
736.60 0.227
736.70 0.2269
736.80 0.2268
736.90 0.2267
737.00 0.2265
737.10 0.2264
737.20 0.2263
737.30 0.2262
737.40 0.2261
737.50 0.226
737.60 0.2258
737.70 0.2257
737.80 0.2256
737.90 0.2255
738.00 0.2254
738.10 0.2252
738.20 0.2251
738.30 0.225
738.40 0.2249
738.50 0.2248
738.60 0.2247
738.70 0.2245
738.80 0.2244
738.90 0.2243
739.00 0.2242
739.10 0.2241
739.20 0.2239
739.30 0.2238
739.40 0.2237
739.50 0.2236
739.60 0.2235
739.70 0.2234
739.80 0.2232
739.90 0.2231
740.00 0.223
740.10 0.2229
740.20 0.2228
740.30 0.2227
740.40 0.2225
740.50 0.2224
740.60 0.2223
740.70 0.2222
740.80 0.2221
740.90 0.222
741.00 0.2219
741.10 0.2217
741.20 0.2216
741.30 0.2215
741.40 0.2214
741.50 0.2213
741.60 0.2212
741.70 0.2211
741.80 0.2209
741.90 0.2208
742.00 0.2207
742.10 0.2206
742.20 0.2205
742.30 0.2204
742.40 0.2203
742.50 0.2201
742.60 0.22
742.70 0.2199
742.80 0.2198
742.90 0.2197
743.00 0.2196
743.10 0.2195
743.20 0.2193
743.30 0.2192
743.40 0.2191
743.50 0.219
743.60 0.2189
743.70 0.2188
743.80 0.2187
743.90 0.2185
744.00 0.2184
744.10 0.2183
744.20 0.2182
744.30 0.2181
744.40 0.218
744.50 0.2179
744.60 0.2178
744.70 0.2176
744.80 0.2175
744.90 0.2174
745.00 0.2173
745.10 0.2172
745.20 0.2171
745.30 0.217
745.40 0.2169
745.50 0.2167
745.60 0.2166
745.70 0.2165
745.80 0.2164
745.90 0.2163
746.00 0.2162
746.10 0.2161
746.20 0.216
746.30 0.2158
746.40 0.2157
746.50 0.2156
746.60 0.2155
746.70 0.2154
746.80 0.2153
746.90 0.2152
747.00 0.2151
747.10 0.215
747.20 0.2148
747.30 0.2147
747.40 0.2146
747.50 0.2145
747.60 0.2144
747.70 0.2143
747.80 0.2142
747.90 0.2141
748.00 0.214
748.10 0.2138
748.20 0.2137
748.30 0.2136
748.40 0.2135
748.50 0.2134
748.60 0.2133
748.70 0.2132
748.80 0.2131
748.90 0.213
749.00 0.2128
749.10 0.2127
749.20 0.2126
749.30 0.2125
749.40 0.2124
749.50 0.2123
749.60 0.2122
749.70 0.2121
749.80 0.212
749.90 0.2119
750.00 0.2117
750.10 0.2116
750.20 0.2115
750.30 0.2114
750.40 0.2113
750.50 0.2112
750.60 0.2111
750.70 0.211
750.80 0.2109
750.90 0.2108
751.00 0.2107
751.10 0.2106
751.20 0.2104
751.30 0.2103
751.40 0.2102
751.50 0.2101
751.60 0.21
751.70 0.2099
751.80 0.2098
751.90 0.2097
752.00 0.2096
752.10 0.2095
752.20 0.2094
752.30 0.2093
752.40 0.2092
752.50 0.2091
752.60 0.2089
752.70 0.2088
752.80 0.2087
752.90 0.2086
753.00 0.2085
753.10 0.2084
753.20 0.2083
753.30 0.2082
753.40 0.2081
753.50 0.208
753.60 0.2079
753.70 0.2078
753.80 0.2077
753.90 0.2076
754.00 0.2075
754.10 0.2074
754.20 0.2072
754.30 0.2071
754.40 0.207
754.50 0.2069
754.60 0.2068
754.70 0.2067
754.80 0.2066
754.90 0.2065
755.00 0.2064
755.10 0.2063
755.20 0.2062
755.30 0.2061
755.40 0.206
755.50 0.2059
755.60 0.2058
755.70 0.2057
755.80 0.2056
755.90 0.2055
756.00 0.2053
756.10 0.2052
756.20 0.2051
756.30 0.205
756.40 0.2049
756.50 0.2048
756.60 0.2047
756.70 0.2046
756.80 0.2045
756.90 0.2044
757.00 0.2043
757.10 0.2042
757.20 0.2041
757.30 0.204
757.40 0.2039
757.50 0.2038
757.60 0.2037
757.70 0.2036
757.80 0.2035
757.90 0.2034
758.00 0.2033
758.10 0.2032
758.20 0.203
758.30 0.2029
758.40 0.2028
758.50 0.2027
758.60 0.2026
758.70 0.2025
758.80 0.2024
758.90 0.2023
759.00 0.2022
759.10 0.2021
759.20 0.202
759.30 0.2019
759.40 0.2018
759.50 0.2017
759.60 0.2016
759.70 0.2015
759.80 0.2014
759.90 0.2013
760.00 0.2012
760.10 0.2011
760.20 0.201
760.30 0.2009
760.40 0.2008
760.50 0.2007
760.60 0.2006
760.70 0.2005
760.80 0.2004
760.90 0.2003
761.00 0.2002
761.10 0.2001
761.20 0.2
761.30 0.1999
761.40 0.1998
761.50 0.1997
761.60 0.1996
761.70 0.1995
761.80 0.1994
761.90 0.1993
762.00 0.1992
762.10 0.1991
762.20 0.199
762.30 0.1989
762.40 0.1988
762.50 0.1987
762.60 0.1986
762.70 0.1985
762.80 0.1984
762.90 0.1983
763.00 0.1982
763.10 0.1981
763.20 0.198
763.30 0.1979
763.40 0.1978
763.50 0.1977
763.60 0.1976
763.70 0.1975
763.80 0.1974
763.90 0.1973
764.00 0.1972
764.10 0.1971
764.20 0.197
764.30 0.1969
764.40 0.1968
764.50 0.1967
764.60 0.1966
764.70 0.1965
764.80 0.1964
764.90 0.1963
765.00 0.1962
765.10 0.1961
765.20 0.196
765.30 0.1959
765.40 0.1958
765.50 0.1957
765.60 0.1956
765.70 0.1955
765.80 0.1954
765.90 0.1953
766.00 0.1952
766.10 0.1951
766.20 0.195
766.30 0.1949
766.40 0.1948
766.50 0.1947
766.60 0.1946
766.70 0.1945
766.80 0.1944
766.90 0.1943
767.00 0.1942
767.10 0.1941
767.20 0.194
767.30 0.1939
767.40 0.1938
767.50 0.1937
767.60 0.1936
767.70 0.1935
767.80 0.1934
767.90 0.1933
768.00 0.1932
768.10 0.1931
768.20 0.193
768.30 0.1929
768.40 0.1928
768.50 0.1927
768.60 0.1926
768.70 0.1925
768.80 0.1924
768.90 0.1923
769.00 0.1922
769.10 0.1921
769.20 0.1921
769.30 0.192
769.40 0.1919
769.50 0.1918
769.60 0.1917
769.70 0.1916
769.80 0.1915
769.90 0.1914
770.00 0.1913
770.10 0.1912
770.20 0.1911
770.30 0.191
770.40 0.1909
770.50 0.1908
770.60 0.1907
770.70 0.1906
770.80 0.1905
770.90 0.1904
771.00 0.1903
771.10 0.1902
771.20 0.1901
771.30 0.19
771.40 0.1899
771.50 0.1899
771.60 0.1898
771.70 0.1897
771.80 0.1896
771.90 0.1895
772.00 0.1894
772.10 0.1893
772.20 0.1892
772.30 0.1891
772.40 0.189
772.50 0.1889
772.60 0.1888
772.70 0.1887
772.80 0.1886
772.90 0.1885
773.00 0.1884
773.10 0.1883
773.20 0.1883
773.30 0.1882
773.40 0.1881
773.50 0.188
773.60 0.1879
773.70 0.1878
773.80 0.1877
773.90 0.1876
774.00 0.1875
774.10 0.1874
774.20 0.1873
774.30 0.1872
774.40 0.1871
774.50 0.187
774.60 0.1869
774.70 0.1868
774.80 0.1868
774.90 0.1867
775.00 0.1866
775.10 0.1865
775.20 0.1864
775.30 0.1863
775.40 0.1862
775.50 0.1861
775.60 0.186
775.70 0.1859
775.80 0.1858
775.90 0.1857
776.00 0.1856
776.10 0.1855
776.20 0.1855
776.30 0.1854
776.40 0.1853
776.50 0.1852
776.60 0.1851
776.70 0.185
776.80 0.1849
776.90 0.1848
777.00 0.1847
777.10 0.1846
777.20 0.1845
777.30 0.1844
777.40 0.1843
777.50 0.1843
777.60 0.1842
777.70 0.1841
777.80 0.184
777.90 0.1839
778.00 0.1838
778.10 0.1837
778.20 0.1836
778.30 0.1835
778.40 0.1834
778.50 0.1833
778.60 0.1832
778.70 0.1832
778.80 0.1831
778.90 0.183
779.00 0.1829
779.10 0.1828
779.20 0.1827
779.30 0.1826
779.40 0.1825
779.50 0.1824
779.60 0.1823
779.70 0.1822
779.80 0.1822
779.90 0.1821
780.00 0.182
780.10 0.1819
780.20 0.1818
780.30 0.1817
780.40 0.1816
780.50 0.1815
780.60 0.1814
780.70 0.1813
780.80 0.1813
780.90 0.1812
781.00 0.1811
781.10 0.181
781.20 0.1809
781.30 0.1808
781.40 0.1807
781.50 0.1806
781.60 0.1805
781.70 0.1805
781.80 0.1804
781.90 0.1803
782.00 0.1802
782.10 0.1801
782.20 0.18
782.30 0.1799
782.40 0.1798
782.50 0.1797
782.60 0.1797
782.70 0.1796
782.80 0.1795
782.90 0.1794
783.00 0.1793
783.10 0.1792
783.20 0.1791
783.30 0.179
783.40 0.179
783.50 0.1789
783.60 0.1788
783.70 0.1787
783.80 0.1786
783.90 0.1785
784.00 0.1784
784.10 0.1783
784.20 0.1782
784.30 0.1782
784.40 0.1781
784.50 0.178
784.60 0.1779
784.70 0.1778
784.80 0.1777
784.90 0.1776
785.00 0.1775
785.10 0.1775
785.20 0.1774
785.30 0.1773
785.40 0.1772
785.50 0.1771
785.60 0.177
785.70 0.1769
785.80 0.1769
785.90 0.1768
786.00 0.1767
786.10 0.1766
786.20 0.1765
786.30 0.1764
786.40 0.1763
786.50 0.1762
786.60 0.1762
786.70 0.1761
786.80 0.176
786.90 0.1759
787.00 0.1758
787.10 0.1757
787.20 0.1756
787.30 0.1755
787.40 0.1755
787.50 0.1754
787.60 0.1753
787.70 0.1752
787.80 0.1751
787.90 0.175
788.00 0.1749
788.10 0.1749
788.20 0.1748
788.30 0.1747
788.40 0.1746
788.50 0.1745
788.60 0.1744
788.70 0.1743
788.80 0.1743
788.90 0.1742
789.00 0.1741
789.10 0.174
789.20 0.1739
789.30 0.1738
789.40 0.1737
789.50 0.1737
789.60 0.1736
789.70 0.1735
789.80 0.1734
789.90 0.1733
790.00 0.1732
790.10 0.1731
790.20 0.1731
790.30 0.173
790.40 0.1729
790.50 0.1728
790.60 0.1727
790.70 0.1726
790.80 0.1726
790.90 0.1725
791.00 0.1724
791.10 0.1723
791.20 0.1722
791.30 0.1721
791.40 0.1721
791.50 0.172
791.60 0.1719
791.70 0.1718
791.80 0.1717
791.90 0.1716
792.00 0.1716
792.10 0.1715
792.20 0.1714
792.30 0.1713
792.40 0.1712
792.50 0.1711
792.60 0.1711
792.70 0.171
792.80 0.1709
792.90 0.1708
793.00 0.1707
793.10 0.1706
793.20 0.1706
793.30 0.1705
793.40 0.1704
793.50 0.1703
793.60 0.1702
793.70 0.1701
793.80 0.1701
793.90 0.17
794.00 0.1699
794.10 0.1698
794.20 0.1697
794.30 0.1696
794.40 0.1696
794.50 0.1695
794.60 0.1694
794.70 0.1693
794.80 0.1692
794.90 0.1691
795.00 0.1691
795.10 0.169
795.20 0.1689
795.30 0.1688
795.40 0.1687
795.50 0.1687
795.60 0.1686
795.70 0.1685
795.80 0.1684
795.90 0.1683
796.00 0.1682
796.10 0.1682
796.20 0.1681
796.30 0.168
796.40 0.1679
796.50 0.1678
796.60 0.1678
796.70 0.1677
796.80 0.1676
796.90 0.1675
797.00 0.1674
797.10 0.1673
797.20 0.1673
797.30 0.1672
797.40 0.1671
797.50 0.167
797.60 0.1669
797.70 0.1669
797.80 0.1668
797.90 0.1667
798.00 0.1666
798.10 0.1665
798.20 0.1665
798.30 0.1664
798.40 0.1663
798.50 0.1662
798.60 0.1661
798.70 0.166
798.80 0.166
798.90 0.1659
799.00 0.1658
799.10 0.1657
799.20 0.1656
799.30 0.1656
799.40 0.1655
799.50 0.1654
799.60 0.1653
799.70 0.1652
799.80 0.1652
799.90 0.1651
800.00 0.165
800.10 0.1649
800.20 0.1648
800.30 0.1648
800.40 0.1647
800.50 0.1646
800.60 0.1645
800.70 0.1644
800.80 0.1644
800.90 0.1643
801.00 0.1642
801.10 0.1641
801.20 0.1641
801.30 0.164
801.40 0.1639
801.50 0.1638
801.60 0.1637
801.70 0.1637
801.80 0.1636
801.90 0.1635
802.00 0.1634
802.10 0.1633
802.20 0.1633
802.30 0.1632
802.40 0.1631
802.50 0.163
802.60 0.163
802.70 0.1629
802.80 0.1628
802.90 0.1627
803.00 0.1626
803.10 0.1626
803.20 0.1625
803.30 0.1624
803.40 0.1623
803.50 0.1623
803.60 0.1622
803.70 0.1621
803.80 0.162
803.90 0.1619
804.00 0.1619
804.10 0.1618
804.20 0.1617
804.30 0.1616
804.40 0.1616
804.50 0.1615
804.60 0.1614
804.70 0.1613
804.80 0.1612
804.90 0.1612
805.00 0.1611
805.10 0.161
805.20 0.1609
805.30 0.1609
805.40 0.1608
805.50 0.1607
805.60 0.1606
805.70 0.1605
805.80 0.1605
805.90 0.1604
806.00 0.1603
806.10 0.1602
806.20 0.1602
806.30 0.1601
806.40 0.16
806.50 0.1599
806.60 0.1599
806.70 0.1598
806.80 0.1597
806.90 0.1596
807.00 0.1595
807.10 0.1595
807.20 0.1594
807.30 0.1593
807.40 0.1592
807.50 0.1592
807.60 0.1591
807.70 0.159
807.80 0.1589
807.90 0.1589
808.00 0.1588
808.10 0.1587
808.20 0.1586
808.30 0.1585
808.40 0.1585
808.50 0.1584
808.60 0.1583
808.70 0.1582
808.80 0.1582
808.90 0.1581
809.00 0.158
809.10 0.1579
809.20 0.1579
809.30 0.1578
809.40 0.1577
809.50 0.1576
809.60 0.1576
809.70 0.1575
809.80 0.1574
809.90 0.1573
810.00 0.1573
810.10 0.1572
810.20 0.1571
810.30 0.157
810.40 0.157
810.50 0.1569
810.60 0.1568
810.70 0.1567
810.80 0.1567
810.90 0.1566
811.00 0.1565
811.10 0.1564
811.20 0.1564
811.30 0.1563
811.40 0.1562
811.50 0.1561
811.60 0.1561
811.70 0.156
811.80 0.1559
811.90 0.1558
812.00 0.1558
812.10 0.1557
812.20 0.1556
812.30 0.1556
812.40 0.1555
812.50 0.1554
812.60 0.1553
812.70 0.1553
812.80 0.1552
812.90 0.1551
813.00 0.155
813.10 0.155
813.20 0.1549
813.30 0.1548
813.40 0.1547
813.50 0.1547
813.60 0.1546
813.70 0.1545
813.80 0.1544
813.90 0.1544
814.00 0.1543
814.10 0.1542
814.20 0.1542
814.30 0.1541
814.40 0.154
814.50 0.1539
814.60 0.1539
814.70 0.1538
814.80 0.1537
814.90 0.1536
815.00 0.1536
815.10 0.1535
815.20 0.1534
815.30 0.1534
815.40 0.1533
815.50 0.1532
815.60 0.1531
815.70 0.1531
815.80 0.153
815.90 0.1529
816.00 0.1528
816.10 0.1528
816.20 0.1527
816.30 0.1526
816.40 0.1526
816.50 0.1525
816.60 0.1524
816.70 0.1523
816.80 0.1523
816.90 0.1522
817.00 0.1521
817.10 0.152
817.20 0.152
817.30 0.1519
817.40 0.1518
817.50 0.1518
817.60 0.1517
817.70 0.1516
817.80 0.1515
817.90 0.1515
818.00 0.1514
818.10 0.1513
818.20 0.1513
818.30 0.1512
818.40 0.1511
818.50 0.151
818.60 0.151
818.70 0.1509
818.80 0.1508
818.90 0.1508
819.00 0.1507
819.10 0.1506
819.20 0.1505
819.30 0.1505
819.40 0.1504
819.50 0.1503
819.60 0.1502
819.70 0.1502
819.80 0.1501
819.90 0.15
820.00 0.15
820.10 0.1499
820.20 0.1498
820.30 0.1498
820.40 0.1497
820.50 0.1496
820.60 0.1495
820.70 0.1495
820.80 0.1494
820.90 0.1493
821.00 0.1493
821.10 0.1492
821.20 0.1491
821.30 0.149
821.40 0.149
821.50 0.1489
821.60 0.1488
821.70 0.1488
821.80 0.1487
821.90 0.1486
822.00 0.1486
822.10 0.1485
822.20 0.1484
822.30 0.1483
822.40 0.1483
822.50 0.1482
822.60 0.1481
822.70 0.1481
822.80 0.148
822.90 0.1479
823.00 0.1479
823.10 0.1478
823.20 0.1477
823.30 0.1477
823.40 0.1476
823.50 0.1475
823.60 0.1474
823.70 0.1474
823.80 0.1473
823.90 0.1472
824.00 0.1472
824.10 0.1471
824.20 0.147
824.30 0.147
824.40 0.1469
824.50 0.1468
824.60 0.1468
824.70 0.1467
824.80 0.1466
824.90 0.1465
825.00 0.1465
825.10 0.1464
825.20 0.1463
825.30 0.1463
825.40 0.1462
825.50 0.1461
825.60 0.1461
825.70 0.146
825.80 0.1459
825.90 0.1459
826.00 0.1458
826.10 0.1457
826.20 0.1457
826.30 0.1456
826.40 0.1455
826.50 0.1455
826.60 0.1454
826.70 0.1453
826.80 0.1452
826.90 0.1452
827.00 0.1451
827.10 0.145
827.20 0.145
827.30 0.1449
827.40 0.1448
827.50 0.1448
827.60 0.1447
827.70 0.1446
827.80 0.1446
827.90 0.1445
828.00 0.1444
828.10 0.1444
828.20 0.1443
828.30 0.1442
828.40 0.1442
828.50 0.1441
828.60 0.144
828.70 0.144
828.80 0.1439
828.90 0.1438
829.00 0.1438
829.10 0.1437
829.20 0.1436
829.30 0.1436
829.40 0.1435
829.50 0.1434
829.60 0.1434
829.70 0.1433
829.80 0.1432
829.90 0.1432
830.00 0.1431
830.10 0.143
830.20 0.143
830.30 0.1429
830.40 0.1428
830.50 0.1428
830.60 0.1427
830.70 0.1426
830.80 0.1426
830.90 0.1425
831.00 0.1424
831.10 0.1424
831.20 0.1423
831.30 0.1422
831.40 0.1422
831.50 0.1421
831.60 0.142
831.70 0.142
831.80 0.1419
831.90 0.1418
832.00 0.1418
832.10 0.1417
832.20 0.1416
832.30 0.1416
832.40 0.1415
832.50 0.1414
832.60 0.1414
832.70 0.1413
832.80 0.1412
832.90 0.1412
833.00 0.1411
833.10 0.141
833.20 0.141
833.30 0.1409
833.40 0.1408
833.50 0.1408
833.60 0.1407
833.70 0.1406
833.80 0.1406
833.90 0.1405
834.00 0.1404
834.10 0.1404
834.20 0.1403
834.30 0.1402
834.40 0.1402
834.50 0.1401
834.60 0.1401
834.70 0.14
834.80 0.1399
834.90 0.1399
835.00 0.1398
835.10 0.1397
835.20 0.1397
835.30 0.1396
835.40 0.1395
835.50 0.1395
835.60 0.1394
835.70 0.1393
835.80 0.1393
835.90 0.1392
836.00 0.1391
836.10 0.1391
836.20 0.139
836.30 0.1389
836.40 0.1389
836.50 0.1388
836.60 0.1388
836.70 0.1387
836.80 0.1386
836.90 0.1386
837.00 0.1385
837.10 0.1384
837.20 0.1384
837.30 0.1383
837.40 0.1382
837.50 0.1382
837.60 0.1381
837.70 0.138
837.80 0.138
837.90 0.1379
838.00 0.1379
838.10 0.1378
838.20 0.1377
838.30 0.1377
838.40 0.1376
838.50 0.1375
838.60 0.1375
838.70 0.1374
838.80 0.1373
838.90 0.1373
839.00 0.1372
839.10 0.1372
839.20 0.1371
839.30 0.137
839.40 0.137
839.50 0.1369
839.60 0.1368
839.70 0.1368
839.80 0.1367
839.90 0.1366
840.00 0.1366
840.10 0.1365
840.20 0.1365
840.30 0.1364
840.40 0.1363
840.50 0.1363
840.60 0.1362
840.70 0.1361
840.80 0.1361
840.90 0.136
841.00 0.1359
841.10 0.1359
841.20 0.1358
841.30 0.1358
841.40 0.1357
841.50 0.1356
841.60 0.1356
841.70 0.1355
841.80 0.1354
841.90 0.1354
842.00 0.1353
842.10 0.1353
842.20 0.1352
842.30 0.1351
842.40 0.1351
842.50 0.135
842.60 0.1349
842.70 0.1349
842.80 0.1348
842.90 0.1348
843.00 0.1347
843.10 0.1346
843.20 0.1346
843.30 0.1345
843.40 0.1344
843.50 0.1344
843.60 0.1343
843.70 0.1343
843.80 0.1342
843.90 0.1341
844.00 0.1341
844.10 0.134
844.20 0.134
844.30 0.1339
844.40 0.1338
844.50 0.1338
844.60 0.1337
844.70 0.1336
844.80 0.1336
844.90 0.1335
845.00 0.1335
845.10 0.1334
845.20 0.1333
845.30 0.1333
845.40 0.1332
845.50 0.1332
845.60 0.1331
845.70 0.133
845.80 0.133
845.90 0.1329
846.00 0.1328
846.10 0.1328
846.20 0.1327
846.30 0.1327
846.40 0.1326
846.50 0.1325
846.60 0.1325
846.70 0.1324
846.80 0.1324
846.90 0.1323
847.00 0.1322
847.10 0.1322
847.20 0.1321
847.30 0.1321
847.40 0.132
847.50 0.1319
847.60 0.1319
847.70 0.1318
847.80 0.1318
847.90 0.1317
848.00 0.1316
848.10 0.1316
848.20 0.1315
848.30 0.1315
848.40 0.1314
848.50 0.1313
848.60 0.1313
848.70 0.1312
848.80 0.1312
848.90 0.1311
849.00 0.131
849.10 0.131
849.20 0.1309
849.30 0.1309
849.40 0.1308
849.50 0.1307
849.60 0.1307
849.70 0.1306
849.80 0.1306
849.90 0.1305
850.00 0.1304
850.10 0.1304
850.20 0.1303
850.30 0.1303
850.40 0.1302
850.50 0.1301
850.60 0.1301
850.70 0.13
850.80 0.13
850.90 0.1299
851.00 0.1298
851.10 0.1298
851.20 0.1297
851.30 0.1297
851.40 0.1296
851.50 0.1295
851.60 0.1295
851.70 0.1294
851.80 0.1294
851.90 0.1293
852.00 0.1292
852.10 0.1292
852.20 0.1291
852.30 0.1291
852.40 0.129
852.50 0.1289
852.60 0.1289
852.70 0.1288
852.80 0.1288
852.90 0.1287
853.00 0.1287
853.10 0.1286
853.20 0.1285
853.30 0.1285
853.40 0.1284
853.50 0.1284
853.60 0.1283
853.70 0.1282
853.80 0.1282
853.90 0.1281
854.00 0.1281
854.10 0.128
854.20 0.128
854.30 0.1279
854.40 0.1278
854.50 0.1278
854.60 0.1277
854.70 0.1277
854.80 0.1276
854.90 0.1275
855.00 0.1275
855.10 0.1274
855.20 0.1274
855.30 0.1273
855.40 0.1273
855.50 0.1272
855.60 0.1271
855.70 0.1271
855.80 0.127
855.90 0.127
856.00 0.1269
856.10 0.1269
856.20 0.1268
856.30 0.1267
856.40 0.1267
856.50 0.1266
856.60 0.1266
856.70 0.1265
856.80 0.1264
856.90 0.1264
857.00 0.1263
857.10 0.1263
857.20 0.1262
857.30 0.1262
857.40 0.1261
857.50 0.126
857.60 0.126
857.70 0.1259
857.80 0.1259
857.90 0.1258
858.00 0.1258
858.10 0.1257
858.20 0.1257
858.30 0.1256
858.40 0.1255
858.50 0.1255
858.60 0.1254
858.70 0.1254
858.80 0.1253
858.90 0.1253
859.00 0.1252
859.10 0.1251
859.20 0.1251
859.30 0.125
859.40 0.125
859.50 0.1249
859.60 0.1249
859.70 0.1248
859.80 0.1247
859.90 0.1247
860.00 0.1246
860.10 0.1246
860.20 0.1245
860.30 0.1245
860.40 0.1244
860.50 0.1244
860.60 0.1243
860.70 0.1242
860.80 0.1242
860.90 0.1241
861.00 0.1241
861.10 0.124
861.20 0.124
861.30 0.1239
861.40 0.1239
861.50 0.1238
861.60 0.1237
861.70 0.1237
861.80 0.1236
861.90 0.1236
862.00 0.1235
862.10 0.1235
862.20 0.1234
862.30 0.1234
862.40 0.1233
862.50 0.1232
862.60 0.1232
862.70 0.1231
862.80 0.1231
862.90 0.123
863.00 0.123
863.10 0.1229
863.20 0.1229
863.30 0.1228
863.40 0.1227
863.50 0.1227
863.60 0.1226
863.70 0.1226
863.80 0.1225
863.90 0.1225
864.00 0.1224
864.10 0.1224
864.20 0.1223
864.30 0.1222
864.40 0.1222
864.50 0.1221
864.60 0.1221
864.70 0.122
864.80 0.122
864.90 0.1219
865.00 0.1219
865.10 0.1218
865.20 0.1218
865.30 0.1217
865.40 0.1216
865.50 0.1216
865.60 0.1215
865.70 0.1215
865.80 0.1214
865.90 0.1214
866.00 0.1213
866.10 0.1213
866.20 0.1212
866.30 0.1212
866.40 0.1211
866.50 0.121
866.60 0.121
866.70 0.1209
866.80 0.1209
866.90 0.1208
867.00 0.1208
867.10 0.1207
867.20 0.1207
867.30 0.1206
867.40 0.1206
867.50 0.1205
867.60 0.1204
867.70 0.1204
867.80 0.1203
867.90 0.1203
868.00 0.1202
868.10 0.1202
868.20 0.1201
868.30 0.1201
868.40 0.12
868.50 0.12
868.60 0.1199
868.70 0.1199
868.80 0.1198
868.90 0.1198
869.00 0.1197
869.10 0.1196
869.20 0.1196
869.30 0.1195
869.40 0.1195
869.50 0.1194
869.60 0.1194
869.70 0.1193
869.80 0.1193
869.90 0.1192
870.00 0.1192
870.10 0.1191
870.20 0.1191
870.30 0.119
870.40 0.119
870.50 0.1189
870.60 0.1188
870.70 0.1188
870.80 0.1187
870.90 0.1187
871.00 0.1186
871.10 0.1186
871.20 0.1185
871.30 0.1185
871.40 0.1184
871.50 0.1184
871.60 0.1183
871.70 0.1183
871.80 0.1182
871.90 0.1182
872.00 0.1181
872.10 0.1181
872.20 0.118
872.30 0.1179
872.40 0.1179
872.50 0.1178
872.60 0.1178
872.70 0.1177
872.80 0.1177
872.90 0.1176
873.00 0.1176
873.10 0.1175
873.20 0.1175
873.30 0.1174
873.40 0.1174
873.50 0.1173
873.60 0.1173
873.70 0.1172
873.80 0.1172
873.90 0.1171
874.00 0.1171
874.10 0.117
874.20 0.117
874.30 0.1169
874.40 0.1169
874.50 0.1168
874.60 0.1168
874.70 0.1167
874.80 0.1166
874.90 0.1166
875.00 0.1165
875.10 0.1165
875.20 0.1164
875.30 0.1164
875.40 0.1163
875.50 0.1163
875.60 0.1162
875.70 0.1162
875.80 0.1161
875.90 0.1161
876.00 0.116
876.10 0.116
876.20 0.1159
876.30 0.1159
876.40 0.1158
876.50 0.1158
876.60 0.1157
876.70 0.1157
876.80 0.1156
876.90 0.1156
877.00 0.1155
877.10 0.1155
877.20 0.1154
877.30 0.1154
877.40 0.1153
877.50 0.1153
877.60 0.1152
877.70 0.1152
877.80 0.1151
877.90 0.1151
878.00 0.115
878.10 0.115
878.20 0.1149
878.30 0.1149
878.40 0.1148
878.50 0.1148
878.60 0.1147
878.70 0.1147
878.80 0.1146
878.90 0.1146
879.00 0.1145
879.10 0.1145
879.20 0.1144
879.30 0.1144
879.40 0.1143
879.50 0.1143
879.60 0.1142
879.70 0.1142
879.80 0.1141
879.90 0.1141
880.00 0.114
880.10 0.114
880.20 0.1139
880.30 0.1139
880.40 0.1138
880.50 0.1138
880.60 0.1137
880.70 0.1137
880.80 0.1136
880.90 0.1136
881.00 0.1135
881.10 0.1135
881.20 0.1134
881.30 0.1134
881.40 0.1133
881.50 0.1133
881.60 0.1132
881.70 0.1132
881.80 0.1131
881.90 0.1131
882.00 0.113
882.10 0.113
882.20 0.1129
882.30 0.1129
882.40 0.1128
882.50 0.1128
882.60 0.1127
882.70 0.1127
882.80 0.1126
882.90 0.1126
883.00 0.1125
883.10 0.1125
883.20 0.1124
883.30 0.1124
883.40 0.1123
883.50 0.1123
883.60 0.1122
883.70 0.1122
883.80 0.1121
883.90 0.1121
884.00 0.112
884.10 0.112
884.20 0.1119
884.30 0.1119
884.40 0.1118
884.50 0.1118
884.60 0.1117
884.70 0.1117
884.80 0.1116
884.90 0.1116
885.00 0.1115
885.10 0.1115
885.20 0.1114
885.30 0.1114
885.40 0.1113
885.50 0.1113
885.60 0.1112
885.70 0.1112
885.80 0.1111
885.90 0.1111
886.00 0.1111
886.10 0.111
886.20 0.111
886.30 0.1109
886.40 0.1109
886.50 0.1108
886.60 0.1108
886.70 0.1107
886.80 0.1107
886.90 0.1106
887.00 0.1106
887.10 0.1105
887.20 0.1105
887.30 0.1104
887.40 0.1104
887.50 0.1103
887.60 0.1103
887.70 0.1102
887.80 0.1102
887.90 0.1101
888.00 0.1101
888.10 0.11
888.20 0.11
888.30 0.1099
888.40 0.1099
888.50 0.1099
888.60 0.1098
888.70 0.1098
888.80 0.1097
888.90 0.1097
889.00 0.1096
889.10 0.1096
889.20 0.1095
889.30 0.1095
889.40 0.1094
889.50 0.1094
889.60 0.1093
889.70 0.1093
889.80 0.1092
889.90 0.1092
890.00 0.1091
890.10 0.1091
890.20 0.109
890.30 0.109
890.40 0.1089
890.50 0.1089
890.60 0.1089
890.70 0.1088
890.80 0.1088
890.90 0.1087
891.00 0.1087
891.10 0.1086
891.20 0.1086
891.30 0.1085
891.40 0.1085
891.50 0.1084
891.60 0.1084
891.70 0.1083
891.80 0.1083
891.90 0.1082
892.00 0.1082
892.10 0.1081
892.20 0.1081
892.30 0.1081
892.40 0.108
892.50 0.108
892.60 0.1079
892.70 0.1079
892.80 0.1078
892.90 0.1078
893.00 0.1077
893.10 0.1077
893.20 0.1076
893.30 0.1076
893.40 0.1075
893.50 0.1075
893.60 0.1074
893.70 0.1074
893.80 0.1074
893.90 0.1073
894.00 0.1073
894.10 0.1072
894.20 0.1072
894.30 0.1071
894.40 0.1071
894.50 0.107
894.60 0.107
894.70 0.1069
894.80 0.1069
894.90 0.1068
895.00 0.1068
895.10 0.1068
895.20 0.1067
895.30 0.1067
895.40 0.1066
895.50 0.1066
895.60 0.1065
895.70 0.1065
895.80 0.1064
895.90 0.1064
896.00 0.1063
896.10 0.1063
896.20 0.1062
896.30 0.1062
896.40 0.1062
896.50 0.1061
896.60 0.1061
896.70 0.106
896.80 0.106
896.90 0.1059
897.00 0.1059
897.10 0.1058
897.20 0.1058
897.30 0.1057
897.40 0.1057
897.50 0.1057
897.60 0.1056
897.70 0.1056
897.80 0.1055
897.90 0.1055
898.00 0.1054
898.10 0.1054
898.20 0.1053
898.30 0.1053
898.40 0.1052
898.50 0.1052
898.60 0.1052
898.70 0.1051
898.80 0.1051
898.90 0.105
899.00 0.105
899.10 0.1049
899.20 0.1049
899.30 0.1048
899.40 0.1048
899.50 0.1048
899.60 0.1047
899.70 0.1047
899.80 0.1046
899.90 0.1046
900.00 0.1045
900.10 0.1045
900.20 0.1044
900.30 0.1044
900.40 0.1044
900.50 0.1043
900.60 0.1043
900.70 0.1042
900.80 0.1042
900.90 0.1041
901.00 0.1041
901.10 0.104
901.20 0.104
901.30 0.104
901.40 0.1039
901.50 0.1039
901.60 0.1038
901.70 0.1038
901.80 0.1037
901.90 0.1037
902.00 0.1036
902.10 0.1036
902.20 0.1036
902.30 0.1035
902.40 0.1035
902.50 0.1034
902.60 0.1034
902.70 0.1033
902.80 0.1033
902.90 0.1032
903.00 0.1032
903.10 0.1032
903.20 0.1031
903.30 0.1031
903.40 0.103
903.50 0.103
903.60 0.1029
903.70 0.1029
903.80 0.1029
903.90 0.1028
904.00 0.1028
904.10 0.1027
904.20 0.1027
904.30 0.1026
904.40 0.1026
904.50 0.1026
904.60 0.1025
904.70 0.1025
904.80 0.1024
904.90 0.1024
905.00 0.1023
905.10 0.1023
905.20 0.1022
905.30 0.1022
905.40 0.1022
905.50 0.1021
905.60 0.1021
905.70 0.102
905.80 0.102
905.90 0.1019
906.00 0.1019
906.10 0.1019
906.20 0.1018
906.30 0.1018
906.40 0.1017
906.50 0.1017
906.60 0.1016
906.70 0.1016
906.80 0.1016
906.90 0.1015
907.00 0.1015
907.10 0.1014
907.20 0.1014
907.30 0.1013
907.40 0.1013
907.50 0.1013
907.60 0.1012
907.70 0.1012
907.80 0.1011
907.90 0.1011
908.00 0.101
908.10 0.101
908.20 0.101
908.30 0.1009
908.40 0.1009
908.50 0.1008
908.60 0.1008
908.70 0.1007
908.80 0.1007
908.90 0.1007
909.00 0.1006
909.10 0.1006
909.20 0.1005
909.30 0.1005
909.40 0.1004
909.50 0.1004
909.60 0.1004
909.70 0.1003
909.80 0.1003
909.90 0.1002
910.00 0.1002
910.10 0.1001
910.20 0.1001
910.30 0.1001
910.40 0.1
910.50 0.09998
910.60 0.09993
910.70 0.09989
910.80 0.09985
910.90 0.09981
911.00 0.09976
911.10 0.09972
911.20 0.09968
911.30 0.09964
911.40 0.0996
911.50 0.09955
911.60 0.09951
911.70 0.09947
911.80 0.09943
911.90 0.09938
912.00 0.09934
912.10 0.0993
912.20 0.09926
912.30 0.09921
912.40 0.09917
912.50 0.09913
912.60 0.09909
912.70 0.09904
912.80 0.099
912.90 0.09896
913.00 0.09892
913.10 0.09887
913.20 0.09883
913.30 0.09879
913.40 0.09875
913.50 0.0987
913.60 0.09866
913.70 0.09862
913.80 0.09858
913.90 0.09853
914.00 0.09849
914.10 0.09845
914.20 0.09841
914.30 0.09836
914.40 0.09832
914.50 0.09828
914.60 0.09824
914.70 0.09819
914.80 0.09815
914.90 0.09811
915.00 0.09807
915.10 0.09803
915.20 0.09798
915.30 0.09794
915.40 0.0979
915.50 0.09786
915.60 0.09781
915.70 0.09777
915.80 0.09773
915.90 0.09769
916.00 0.09765
916.10 0.0976
916.20 0.09756
916.30 0.09752
916.40 0.09748
916.50 0.09744
916.60 0.09739
916.70 0.09735
916.80 0.09731
916.90 0.09727
917.00 0.09723
917.10 0.09718
917.20 0.09714
917.30 0.0971
917.40 0.09706
917.50 0.09702
917.60 0.09698
917.70 0.09694
917.80 0.09689
917.90 0.09685
918.00 0.09681
918.10 0.09677
918.20 0.09673
918.30 0.09669
918.40 0.09665
918.50 0.09661
918.60 0.09656
918.70 0.09652
918.80 0.09648
918.90 0.09644
919.00 0.0964
919.10 0.09636
919.20 0.09632
919.30 0.09628
919.40 0.09624
919.50 0.09619
919.60 0.09615
919.70 0.09611
919.80 0.09607
919.90 0.09603
920.00 0.09599
920.10 0.09595
920.20 0.09591
920.30 0.09587
920.40 0.09583
920.50 0.09578
920.60 0.09574
920.70 0.0957
920.80 0.09566
920.90 0.09562
921.00 0.09558
921.10 0.09554
921.20 0.0955
921.30 0.09546
921.40 0.09542
921.50 0.09538
921.60 0.09534
921.70 0.09529
921.80 0.09525
921.90 0.09521
922.00 0.09517
922.10 0.09513
922.20 0.0951
922.30 0.09506
922.40 0.09502
922.50 0.09498
922.60 0.09494
922.70 0.0949
922.80 0.09486
922.90 0.09482
923.00 0.09479
923.10 0.09475
923.20 0.09471
923.30 0.09467
923.40 0.09463
923.50 0.09459
923.60 0.09456
923.70 0.09452
923.80 0.09448
923.90 0.09444
924.00 0.0944
924.10 0.09436
924.20 0.09433
924.30 0.09429
924.40 0.09425
924.50 0.09421
924.60 0.09417
924.70 0.09413
924.80 0.0941
924.90 0.09406
925.00 0.09402
925.10 0.09398
925.20 0.09394
925.30 0.0939
925.40 0.09387
925.50 0.09383
925.60 0.09379
925.70 0.09375
925.80 0.09371
925.90 0.09368
926.00 0.09364
926.10 0.0936
926.20 0.09356
926.30 0.09352
926.40 0.09348
926.50 0.09345
926.60 0.09341
926.70 0.09337
926.80 0.09333
926.90 0.09329
927.00 0.09326
927.10 0.09322
927.20 0.09318
927.30 0.09315
927.40 0.09311
927.50 0.09307
927.60 0.09304
927.70 0.093
927.80 0.09296
927.90 0.09292
928.00 0.09289
928.10 0.09285
928.20 0.09281
928.30 0.09278
928.40 0.09274
928.50 0.0927
928.60 0.09267
928.70 0.09263
928.80 0.09259
928.90 0.09256
929.00 0.09252
929.10 0.09248
929.20 0.09245
929.30 0.09241
929.40 0.09237
929.50 0.09234
929.60 0.0923
929.70 0.09226
929.80 0.09223
929.90 0.09219
930.00 0.09215
930.10 0.09212
930.20 0.09208
930.30 0.09204
930.40 0.09201
930.50 0.09197
930.60 0.09193
930.70 0.0919
930.80 0.09186
930.90 0.09183
931.00 0.09179
931.10 0.09175
931.20 0.09172
931.30 0.09168
931.40 0.09164
931.50 0.09161
931.60 0.09157
931.70 0.09153
931.80 0.0915
931.90 0.09146
932.00 0.09142
932.10 0.09139
932.20 0.09135
932.30 0.09131
932.40 0.09128
932.50 0.09124
932.60 0.0912
932.70 0.09117
932.80 0.09113
932.90 0.09109
933.00 0.09106
933.10 0.09102
933.20 0.09098
933.30 0.09095
933.40 0.09091
933.50 0.09087
933.60 0.09084
933.70 0.0908
933.80 0.09076
933.90 0.09073
934.00 0.09069
934.10 0.09065
934.20 0.09061
934.30 0.09058
934.40 0.09054
934.50 0.0905
934.60 0.09047
934.70 0.09043
934.80 0.09039
934.90 0.09035
935.00 0.09032
935.10 0.09028
935.20 0.09024
935.30 0.09021
935.40 0.09017
935.50 0.09013
935.60 0.09009
935.70 0.09006
935.80 0.09002
935.90 0.08998
936.00 0.08995
936.10 0.08991
936.20 0.08987
936.30 0.08983
936.40 0.0898
936.50 0.08976
936.60 0.08972
936.70 0.08969
936.80 0.08965
936.90 0.08961
937.00 0.08958
937.10 0.08954
937.20 0.0895
937.30 0.08946
937.40 0.08943
937.50 0.08939
937.60 0.08935
937.70 0.08931
937.80 0.08928
937.90 0.08924
938.00 0.0892
938.10 0.08916
938.20 0.08913
938.30 0.08909
938.40 0.08905
938.50 0.08901
938.60 0.08898
938.70 0.08894
938.80 0.0889
938.90 0.08886
939.00 0.08882
939.10 0.08879
939.20 0.08875
939.30 0.08871
939.40 0.08867
939.50 0.08864
939.60 0.0886
939.70 0.08856
939.80 0.08852
939.90 0.08848
940.00 0.08845
940.10 0.08841
940.20 0.08837
940.30 0.08833
940.40 0.0883
940.50 0.08826
940.60 0.08822
940.70 0.08818
940.80 0.08814
940.90 0.08811
941.00 0.08807
941.10 0.08803
941.20 0.08799
941.30 0.08795
941.40 0.08791
941.50 0.08788
941.60 0.08784
941.70 0.0878
941.80 0.08776
941.90 0.08772
942.00 0.08769
942.10 0.08765
942.20 0.08761
942.30 0.08757
942.40 0.08753
942.50 0.08749
942.60 0.08746
942.70 0.08742
942.80 0.08738
942.90 0.08734
943.00 0.0873
943.10 0.08726
943.20 0.08722
943.30 0.08719
943.40 0.08715
943.50 0.08711
943.60 0.08707
943.70 0.08703
943.80 0.08699
943.90 0.08696
944.00 0.08692
944.10 0.08688
944.20 0.08684
944.30 0.0868
944.40 0.08676
944.50 0.08672
944.60 0.08669
944.70 0.08665
944.80 0.08661
944.90 0.08657
945.00 0.08653
945.10 0.08649
945.20 0.08645
945.30 0.08641
945.40 0.08637
945.50 0.08634
945.60 0.0863
945.70 0.08626
945.80 0.08622
945.90 0.08618
946.00 0.08614
946.10 0.0861
946.20 0.08606
946.30 0.08602
946.40 0.08598
946.50 0.08594
946.60 0.08591
946.70 0.08587
946.80 0.08583
946.90 0.08579
947.00 0.08575
947.10 0.08571
947.20 0.08567
947.30 0.08563
947.40 0.08559
947.50 0.08555
947.60 0.08551
947.70 0.08548
947.80 0.08544
947.90 0.0854
948.00 0.08536
948.10 0.08532
948.20 0.08528
948.30 0.08524
948.40 0.0852
948.50 0.08516
948.60 0.08512
948.70 0.08508
948.80 0.08504
948.90 0.085
949.00 0.08497
949.10 0.08493
949.20 0.08489
949.30 0.08485
949.40 0.08481
949.50 0.08477
949.60 0.08473
949.70 0.08469
949.80 0.08465
949.90 0.08461
950.00 0.08457
950.10 0.08454
950.20 0.0845
950.30 0.08446
950.40 0.08442
950.50 0.08438
950.60 0.08434
950.70 0.0843
950.80 0.08426
950.90 0.08422
951.00 0.08419
951.10 0.08415
951.20 0.08411
951.30 0.08407
951.40 0.08403
951.50 0.08399
951.60 0.08395
951.70 0.08392
951.80 0.08388
951.90 0.08384
952.00 0.0838
952.10 0.08376
952.20 0.08373
952.30 0.08369
952.40 0.08365
952.50 0.08361
952.60 0.08358
952.70 0.08354
952.80 0.0835
952.90 0.08347
953.00 0.08343
953.10 0.08339
953.20 0.08336
953.30 0.08332
953.40 0.08329
953.50 0.08325
953.60 0.08322
953.70 0.08318
953.80 0.08315
953.90 0.08311
954.00 0.08308
954.10 0.08305
954.20 0.08301
954.30 0.08298
954.40 0.08295
954.50 0.08292
954.60 0.08289
954.70 0.08285
954.80 0.08282
954.90 0.08278
955.00 0.08275
955.10 0.08272
955.20 0.08268
955.30 0.08265
955.40 0.08262
955.50 0.08259
955.60 0.08256
955.70 0.08252
955.80 0.08249
955.90 0.08246
956.00 0.08243
956.10 0.0824
956.20 0.08237
956.30 0.08234
956.40 0.08231
956.50 0.08229
956.60 0.08226
956.70 0.08223
956.80 0.0822
956.90 0.08217
957.00 0.08214
957.10 0.08211
957.20 0.08208
957.30 0.08205
957.40 0.08203
957.50 0.082
957.60 0.08197
957.70 0.08194
957.80 0.08191
957.90 0.08189
958.00 0.08186
958.10 0.08183
958.20 0.0818
958.30 0.08178
958.40 0.08175
958.50 0.08172
958.60 0.08169
958.70 0.08166
958.80 0.08164
958.90 0.08161
959.00 0.08158
959.10 0.08155
959.20 0.08153
959.30 0.0815
959.40 0.08147
959.50 0.08144
959.60 0.08142
959.70 0.08139
959.80 0.08136
959.90 0.08133
960.00 0.08131
960.10 0.08128
960.20 0.08125
960.30 0.08122
960.40 0.0812
960.50 0.08117
960.60 0.08114
960.70 0.08111
960.80 0.08109
960.90 0.08106
961.00 0.08103
961.10 0.081
961.20 0.08098
961.30 0.08095
961.40 0.08092
961.50 0.08089
961.60 0.08087
961.70 0.08084
961.80 0.08081
961.90 0.08078
962.00 0.08076
962.10 0.08073
962.20 0.0807
962.30 0.08067
962.40 0.08064
962.50 0.08062
962.60 0.08059
962.70 0.08056
962.80 0.08053
962.90 0.08051
963.00 0.08048
963.10 0.08045
963.20 0.08042
963.30 0.08039
963.40 0.08037
963.50 0.08034
963.60 0.08031
963.70 0.08028
963.80 0.08025
963.90 0.08023
964.00 0.0802
964.10 0.08017
964.20 0.08014
964.30 0.08011
964.40 0.08009
964.50 0.08006
964.60 0.08003
964.70 0.08
964.80 0.07997
964.90 0.07994
965.00 0.07992
965.10 0.07989
965.20 0.07986
965.30 0.07983
965.40 0.0798
965.50 0.07977
965.60 0.07975
965.70 0.07972
965.80 0.07969
965.90 0.07966
966.00 0.07963
966.10 0.0796
966.20 0.07958
966.30 0.07955
966.40 0.07952
966.50 0.07949
966.60 0.07946
966.70 0.07943
966.80 0.0794
966.90 0.07938
967.00 0.07935
967.10 0.07932
967.20 0.07929
967.30 0.07926
967.40 0.07923
967.50 0.0792
967.60 0.07917
967.70 0.07914
967.80 0.07912
967.90 0.07909
968.00 0.07906
968.10 0.07903
968.20 0.079
968.30 0.07897
968.40 0.07894
968.50 0.07891
968.60 0.07888
968.70 0.07885
968.80 0.07882
968.90 0.0788
969.00 0.07877
969.10 0.07874
969.20 0.07871
969.30 0.07868
969.40 0.07865
969.50 0.07862
969.60 0.07859
969.70 0.07856
969.80 0.07853
969.90 0.0785
970.00 0.07848
970.10 0.07845
970.20 0.07842
970.30 0.07839
970.40 0.07836
970.50 0.07833
970.60 0.0783
970.70 0.07827
970.80 0.07824
970.90 0.07821
971.00 0.07818
971.10 0.07815
971.20 0.07812
971.30 0.07809
971.40 0.07806
971.50 0.07803
971.60 0.078
971.70 0.07797
971.80 0.07795
971.90 0.07792
972.00 0.07789
972.10 0.07786
972.20 0.07783
972.30 0.0778
972.40 0.07777
972.50 0.07774
972.60 0.07771
972.70 0.07768
972.80 0.07765
972.90 0.07762
973.00 0.07759
973.10 0.07756
973.20 0.07753
973.30 0.0775
973.40 0.07747
973.50 0.07744
973.60 0.07741
973.70 0.07738
973.80 0.07735
973.90 0.07732
974.00 0.07729
974.10 0.07726
974.20 0.07723
974.30 0.0772
974.40 0.07717
974.50 0.07714
974.60 0.07711
974.70 0.07708
974.80 0.07705
974.90 0.07702
975.00 0.07699
975.10 0.07696
975.20 0.07693
975.30 0.0769
975.40 0.07687
975.50 0.07684
975.60 0.07681
975.70 0.07678
975.80 0.07675
975.90 0.07672
976.00 0.07669
976.10 0.07666
976.20 0.07663
976.30 0.0766
976.40 0.07657
976.50 0.07654
976.60 0.07651
976.70 0.07648
976.80 0.07645
976.90 0.07642
977.00 0.07639
977.10 0.07636
977.20 0.07633
977.30 0.0763
977.40 0.07627
977.50 0.07624
977.60 0.07621
977.70 0.07618
977.80 0.07615
977.90 0.07612
978.00 0.07609
978.10 0.07606
978.20 0.07603
978.30 0.076
978.40 0.07596
978.50 0.07593
978.60 0.0759
978.70 0.07587
978.80 0.07584
978.90 0.07581
979.00 0.07578
979.10 0.07575
979.20 0.07572
979.30 0.07569
979.40 0.07566
979.50 0.07563
979.60 0.0756
979.70 0.07557
979.80 0.07554
979.90 0.07551
980.00 0.07548
980.10 0.07545
980.20 0.07542
980.30 0.07539
980.40 0.07536
980.50 0.07533
980.60 0.0753
980.70 0.07527
980.80 0.07524
980.90 0.07521
981.00 0.07518
981.10 0.07514
981.20 0.07511
981.30 0.07508
981.40 0.07505
981.50 0.07502
981.60 0.07499
981.70 0.07496
981.80 0.07493
981.90 0.0749
982.00 0.07487
982.10 0.07484
982.20 0.07481
982.30 0.07478
982.40 0.07475
982.50 0.07472
982.60 0.07469
982.70 0.07466
982.80 0.07463
982.90 0.07459
983.00 0.07456
983.10 0.07453
983.20 0.0745
983.30 0.07447
983.40 0.07444
983.50 0.07441
983.60 0.07438
983.70 0.07435
983.80 0.07432
983.90 0.07429
984.00 0.07425
984.10 0.07422
984.20 0.07419
984.30 0.07416
984.40 0.07413
984.50 0.0741
984.60 0.07407
984.70 0.07404
984.80 0.07401
984.90 0.07398
985.00 0.07394
985.10 0.07391
985.20 0.07388
985.30 0.07385
985.40 0.07382
985.50 0.07379
985.60 0.07376
985.70 0.07372
985.80 0.07369
985.90 0.07366
986.00 0.07363
986.10 0.0736
986.20 0.07357
986.30 0.07354
986.40 0.07351
986.50 0.07347
986.60 0.07344
986.70 0.07341
986.80 0.07338
986.90 0.07335
987.00 0.07332
987.10 0.07329
987.20 0.07325
987.30 0.07322
987.40 0.07319
987.50 0.07316
987.60 0.07313
987.70 0.07309
987.80 0.07306
987.90 0.07303
988.00 0.073
988.10 0.07297
988.20 0.07294
988.30 0.0729
988.40 0.07287
988.50 0.07284
988.60 0.07281
988.70 0.07278
988.80 0.07274
988.90 0.07271
989.00 0.07268
989.10 0.07265
989.20 0.07261
989.30 0.07258
989.40 0.07255
989.50 0.07252
989.60 0.07248
989.70 0.07245
989.80 0.07242
989.90 0.07239
990.00 0.07235
990.10 0.07232
990.20 0.07229
990.30 0.07226
990.40 0.07222
990.50 0.07219
990.60 0.07216
990.70 0.07213
990.80 0.07209
990.90 0.07206
991.00 0.07203
991.10 0.07199
991.20 0.07196
991.30 0.07193
991.40 0.0719
991.50 0.07186
991.60 0.07183
991.70 0.0718
991.80 0.07176
991.90 0.07173
992.00 0.0717
992.10 0.07166
992.20 0.07163
992.30 0.0716
992.40 0.07156
992.50 0.07153
992.60 0.0715
992.70 0.07146
992.80 0.07143
992.90 0.07139
993.00 0.07136
993.10 0.07132
993.20 0.07129
993.30 0.07125
993.40 0.07122
993.50 0.07119
993.60 0.07115
993.70 0.07112
993.80 0.07108
993.90 0.07105
994.00 0.07101
994.10 0.07098
994.20 0.07095
994.30 0.07091
994.40 0.07088
994.50 0.07084
994.60 0.07081
994.70 0.07077
994.80 0.07074
994.90 0.0707
995.00 0.07067
995.10 0.07063
995.20 0.0706
995.30 0.07056
995.40 0.07053
995.50 0.07049
995.60 0.07046
995.70 0.07042
995.80 0.07039
995.90 0.07035
996.00 0.07031
996.10 0.07028
996.20 0.07024
996.30 0.0702
996.40 0.07017
996.50 0.07013
996.60 0.0701
996.70 0.07006
996.80 0.07002
996.90 0.06999
997.00 0.06995
997.10 0.06992
997.20 0.06988
997.30 0.06984
997.40 0.06981
997.50 0.06977
997.60 0.06973
997.70 0.06969
997.80 0.06966
997.90 0.06962
998.00 0.06958
998.10 0.06954
998.20 0.06951
998.30 0.06947
998.40 0.06943
998.50 0.06939
998.60 0.06936
998.70 0.06932
998.80 0.06928
998.90 0.06924
999.00 0.0692
999.10 0.06917
999.20 0.06913
999.30 0.06909
999.40 0.06905
999.50 0.06902
999.60 0.06898
999.70 0.06894
999.80 0.0689
999.90 0.06886
1000.00 0.06882
1000.10 0.06878
1000.20 0.06874
1000.30 0.06871
1000.40 0.06867
1000.50 0.06863
1000.60 0.06859
1000.70 0.06855
1000.80 0.06851
1000.90 0.06847
1001.00 0.06843
1001.10 0.06839
1001.20 0.06835
1001.30 0.06831
1001.40 0.06828
1001.50 0.06824
1001.60 0.0682
1001.70 0.06816
1001.80 0.06812
1001.90 0.06809
1002.00 0.06805
1002.10 0.06801
1002.20 0.06798
1002.30 0.06794
1002.40 0.06791
1002.50 0.06787
1002.60 0.06784
1002.70 0.0678
1002.80 0.06777
1002.90 0.06773
1003.00 0.0677
1003.10 0.06766
1003.20 0.06763
1003.30 0.06761
1003.40 0.06758
1003.50 0.06755
1003.60 0.06752
1003.70 0.06749
1003.80 0.06746
1003.90 0.06744
1004.00 0.06742
1004.10 0.0674
1004.20 0.06738
1004.30 0.06737
1004.40 0.06735
1004.50 0.06734
1004.60 0.06733
1004.70 0.06732
1004.80 0.06731
1004.90 0.06728
1005.00 0.06726
1005.10 0.06722
1005.20 0.06718
1005.30 0.06714
1005.40 0.0671
1005.50 0.06707
1005.60 0.06704
1005.70 0.06701
1005.80 0.06697
1005.90 0.06694
1006.00 0.06691
1006.10 0.06688
1006.20 0.06685
1006.30 0.06683
1006.40 0.06681
1006.50 0.06679
1006.60 0.06677
1006.70 0.06675
1006.80 0.06673
1006.90 0.06671
1007.00 0.06668
1007.10 0.06667
1007.20 0.06665
1007.30 0.06664
1007.40 0.06662
1007.50 0.0666
1007.60 0.06659
1007.70 0.06657
1007.80 0.06656
1007.90 0.06654
1008.00 0.06653
1008.10 0.06652
1008.20 0.0665
1008.30 0.06649
1008.40 0.06647
1008.50 0.06646
1008.60 0.06645
1008.70 0.06643
1008.80 0.06642
1008.90 0.0664
1009.00 0.06639
1009.10 0.06638
1009.20 0.06636
1009.30 0.06635
1009.40 0.06634
1009.50 0.06632
1009.60 0.06631
1009.70 0.06629
1009.80 0.06628
1009.90 0.06626
1010.00 0.06625
1010.10 0.06624
1010.20 0.06622
1010.30 0.06621
1010.40 0.06619
1010.50 0.06618
1010.60 0.06616
1010.70 0.06615
1010.80 0.06613
1010.90 0.06612
1011.00 0.06611
1011.10 0.06609
1011.20 0.06608
1011.30 0.06606
1011.40 0.06605
1011.50 0.06603
1011.60 0.06602
1011.70 0.066
1011.80 0.06599
1011.90 0.06597
1012.00 0.06596
1012.10 0.06594
1012.20 0.06593
1012.30 0.06591
1012.40 0.06589
1012.50 0.06588
1012.60 0.06586
1012.70 0.06584
1012.80 0.06583
1012.90 0.06581
1013.00 0.0658
1013.10 0.06578
1013.20 0.06576
1013.30 0.06575
1013.40 0.06573
1013.50 0.06571
1013.60 0.0657
1013.70 0.06568
1013.80 0.06566
1013.90 0.06565
1014.00 0.06563
1014.10 0.06561
1014.20 0.0656
1014.30 0.06558
1014.40 0.06556
1014.50 0.06554
1014.60 0.06553
1014.70 0.06551
1014.80 0.06549
1014.90 0.06547
1015.00 0.06545
1015.10 0.06543
1015.20 0.06542
1015.30 0.0654
1015.40 0.06538
1015.50 0.06536
1015.60 0.06534
1015.70 0.06532
1015.80 0.06531
1015.90 0.06529
1016.00 0.06527
1016.10 0.06525
1016.20 0.06523
1016.30 0.06521
1016.40 0.0652
1016.50 0.06518
1016.60 0.06516
1016.70 0.06514
1016.80 0.06512
1016.90 0.0651
1017.00 0.06508
1017.10 0.06506
1017.20 0.06504
1017.30 0.06502
1017.40 0.065
1017.50 0.06498
1017.60 0.06496
1017.70 0.06494
1017.80 0.06492
1017.90 0.0649
1018.00 0.06488
1018.10 0.06486
1018.20 0.06485
1018.30 0.06483
1018.40 0.06481
1018.50 0.06479
1018.60 0.06477
1018.70 0.06475
1018.80 0.06473
1018.90 0.0647
1019.00 0.06468
1019.10 0.06466
1019.20 0.06464
1019.30 0.06462
1019.40 0.0646
1019.50 0.06458
1019.60 0.06456
1019.70 0.06454
1019.80 0.06452
1019.90 0.0645
1020.00 0.06448
1020.10 0.06446
1020.20 0.06444
1020.30 0.06442
1020.40 0.0644
1020.50 0.06438
1020.60 0.06436
1020.70 0.06433
1020.80 0.06431
1020.90 0.06429
1021.00 0.06427
1021.10 0.06425
1021.20 0.06423
1021.30 0.06421
1021.40 0.06419
1021.50 0.06416
1021.60 0.06414
1021.70 0.06412
1021.80 0.0641
1021.90 0.06408
1022.00 0.06406
1022.10 0.06404
1022.20 0.06402
1022.30 0.06399
1022.40 0.06397
1022.50 0.06395
1022.60 0.06393
1022.70 0.06391
1022.80 0.06389
1022.90 0.06386
1023.00 0.06384
1023.10 0.06382
1023.20 0.0638
1023.30 0.06378
1023.40 0.06375
1023.50 0.06373
1023.60 0.06371
1023.70 0.06369
1023.80 0.06367
1023.90 0.06365
1024.00 0.06362
1024.10 0.0636
1024.20 0.06358
1024.30 0.06356
1024.40 0.06354
1024.50 0.06352
1024.60 0.0635
1024.70 0.06347
1024.80 0.06345
1024.90 0.06343
1025.00 0.06341
1025.10 0.06338
1025.20 0.06336
1025.30 0.06334
1025.40 0.06332
1025.50 0.0633
1025.60 0.06327
1025.70 0.06325
1025.80 0.06323
1025.90 0.06321
1026.00 0.06319
1026.10 0.06316
1026.20 0.06314
1026.30 0.06312
1026.40 0.0631
1026.50 0.06308
1026.60 0.06305
1026.70 0.06303
1026.80 0.06301
1026.90 0.06299
1027.00 0.06297
1027.10 0.06294
1027.20 0.06292
1027.30 0.0629
1027.40 0.06287
1027.50 0.06285
1027.60 0.06283
1027.70 0.06281
1027.80 0.06278
1027.90 0.06276
1028.00 0.06274
1028.10 0.06272
1028.20 0.06269
1028.30 0.06267
1028.40 0.06265
1028.50 0.06263
1028.60 0.0626
1028.70 0.06258
1028.80 0.06256
1028.90 0.06254
1029.00 0.06252
1029.10 0.06249
1029.20 0.06247
1029.30 0.06245
1029.40 0.06243
1029.50 0.0624
1029.60 0.06238
1029.70 0.06236
1029.80 0.06234
1029.90 0.06231
1030.00 0.06229
1030.10 0.06227
1030.20 0.06225
1030.30 0.06222
1030.40 0.0622
1030.50 0.06218
1030.60 0.06216
1030.70 0.06213
1030.80 0.06211
1030.90 0.06209
1031.00 0.06207
1031.10 0.06205
1031.20 0.06202
1031.30 0.062
1031.40 0.06198
1031.50 0.06196
1031.60 0.06193
1031.70 0.06191
1031.80 0.06189
1031.90 0.06187
1032.00 0.06185
1032.10 0.06182
1032.20 0.0618
1032.30 0.06178
1032.40 0.06176
1032.50 0.06173
1032.60 0.06171
1032.70 0.06169
1032.80 0.06167
1032.90 0.06164
1033.00 0.06162
1033.10 0.0616
1033.20 0.06157
1033.30 0.06155
1033.40 0.06153
1033.50 0.06151
1033.60 0.06148
1033.70 0.06146
1033.80 0.06144
1033.90 0.06142
1034.00 0.06139
1034.10 0.06137
1034.20 0.06135
1034.30 0.06133
1034.40 0.06131
1034.50 0.06128
1034.60 0.06126
1034.70 0.06124
1034.80 0.06122
1034.90 0.06119
1035.00 0.06117
1035.10 0.06115
1035.20 0.06113
1035.30 0.0611
1035.40 0.06108
1035.50 0.06106
1035.60 0.06104
1035.70 0.06101
1035.80 0.06099
1035.90 0.06097
1036.00 0.06095
1036.10 0.06092
1036.20 0.0609
1036.30 0.06088
1036.40 0.06086
1036.50 0.06084
1036.60 0.06081
1036.70 0.06079
1036.80 0.06077
1036.90 0.06075
1037.00 0.06072
1037.10 0.0607
1037.20 0.06068
1037.30 0.06066
1037.40 0.06063
1037.50 0.06061
1037.60 0.06059
1037.70 0.06057
1037.80 0.06055
1037.90 0.06052
1038.00 0.0605
1038.10 0.06048
1038.20 0.06046
1038.30 0.06043
1038.40 0.06041
1038.50 0.06039
1038.60 0.06037
1038.70 0.06034
1038.80 0.06032
1038.90 0.0603
1039.00 0.06028
1039.10 0.06026
1039.20 0.06023
1039.30 0.06021
1039.40 0.06019
1039.50 0.06017
1039.60 0.06014
1039.70 0.06012
1039.80 0.0601
1039.90 0.06008
1040.00 0.06006
1040.10 0.06003
1040.20 0.06001
1040.30 0.05999
1040.40 0.05997
1040.50 0.05994
1040.60 0.05992
1040.70 0.0599
1040.80 0.05988
1040.90 0.05986
1041.00 0.05983
1041.10 0.05981
1041.20 0.05979
1041.30 0.05977
1041.40 0.05975
1041.50 0.05972
1041.60 0.0597
1041.70 0.05968
1041.80 0.05966
1041.90 0.05964
1042.00 0.05961
1042.10 0.05959
1042.20 0.05957
1042.30 0.05955
1042.40 0.05952
1042.50 0.0595
1042.60 0.05948
1042.70 0.05946
1042.80 0.05944
1042.90 0.05941
1043.00 0.05939
1043.10 0.05937
1043.20 0.05935
1043.30 0.05933
1043.40 0.0593
1043.50 0.05928
1043.60 0.05926
1043.70 0.05924
1043.80 0.05922
1043.90 0.05919
1044.00 0.05917
1044.10 0.05915
1044.20 0.05913
1044.30 0.05911
1044.40 0.05908
1044.50 0.05906
1044.60 0.05904
1044.70 0.05902
1044.80 0.059
1044.90 0.05898
1045.00 0.05895
1045.10 0.05893
1045.20 0.05891
1045.30 0.05889
1045.40 0.05887
1045.50 0.05884
1045.60 0.05882
1045.70 0.0588
1045.80 0.05878
1045.90 0.05876
1046.00 0.05873
1046.10 0.05871
1046.20 0.05869
1046.30 0.05867
1046.40 0.05865
1046.50 0.05863
1046.60 0.0586
1046.70 0.05858
1046.80 0.05856
1046.90 0.05854
1047.00 0.05852
1047.10 0.0585
1047.20 0.05847
1047.30 0.05845
1047.40 0.05843
1047.50 0.05841
1047.60 0.05839
1047.70 0.05836
1047.80 0.05834
1047.90 0.05832
1048.00 0.0583
1048.10 0.05828
1048.20 0.05826
1048.30 0.05823
1048.40 0.05821
1048.50 0.05819
1048.60 0.05817
1048.70 0.05815
1048.80 0.05813
1048.90 0.0581
1049.00 0.05808
1049.10 0.05806
1049.20 0.05804
1049.30 0.05802
1049.40 0.058
1049.50 0.05797
1049.60 0.05795
1049.70 0.05793
1049.80 0.05791
1049.90 0.05789
1050.00 0.05787
1050.10 0.05785
1050.20 0.05782
1050.30 0.0578
1050.40 0.05778
1050.50 0.05776
1050.60 0.05774
1050.70 0.05772
1050.80 0.05769
1050.90 0.05767
1051.00 0.05765
1051.10 0.05763
1051.20 0.05761
1051.30 0.05759
1051.40 0.05757
1051.50 0.05754
1051.60 0.05752
1051.70 0.0575
1051.80 0.05748
1051.90 0.05746
1052.00 0.05744
1052.10 0.05742
1052.20 0.05739
1052.30 0.05737
1052.40 0.05735
1052.50 0.05733
1052.60 0.05731
1052.70 0.05729
1052.80 0.05727
1052.90 0.05724
1053.00 0.05722
1053.10 0.0572
1053.20 0.05718
1053.30 0.05716
1053.40 0.05714
1053.50 0.05712
1053.60 0.0571
1053.70 0.05707
1053.80 0.05705
1053.90 0.05703
1054.00 0.05701
1054.10 0.05699
1054.20 0.05697
1054.30 0.05695
1054.40 0.05692
1054.50 0.0569
1054.60 0.05688
1054.70 0.05686
1054.80 0.05684
1054.90 0.05682
1055.00 0.0568
1055.10 0.05678
1055.20 0.05675
1055.30 0.05673
1055.40 0.05671
1055.50 0.05669
1055.60 0.05667
1055.70 0.05665
1055.80 0.05663
1055.90 0.05661
1056.00 0.05659
1056.10 0.05656
1056.20 0.05654
1056.30 0.05652
1056.40 0.0565
1056.50 0.05648
1056.60 0.05646
1056.70 0.05644
1056.80 0.05642
1056.90 0.05639
1057.00 0.05637
1057.10 0.05635
1057.20 0.05633
1057.30 0.05631
1057.40 0.05629
1057.50 0.05627
1057.60 0.05625
1057.70 0.05623
1057.80 0.0562
1057.90 0.05618
1058.00 0.05616
1058.10 0.05614
1058.20 0.05612
1058.30 0.0561
1058.40 0.05608
1058.50 0.05606
1058.60 0.05604
1058.70 0.05601
1058.80 0.05599
1058.90 0.05597
1059.00 0.05595
1059.10 0.05593
1059.20 0.05591
1059.30 0.05589
1059.40 0.05587
1059.50 0.05585
1059.60 0.05583
1059.70 0.0558
1059.80 0.05578
1059.90 0.05576
1060.00 0.05574
1060.10 0.05572
1060.20 0.0557
1060.30 0.05568
1060.40 0.05566
1060.50 0.05564
1060.60 0.05562
1060.70 0.05559
1060.80 0.05557
1060.90 0.05555
1061.00 0.05553
1061.10 0.05551
1061.20 0.05549
1061.30 0.05547
1061.40 0.05545
1061.50 0.05543
1061.60 0.05541
1061.70 0.05539
1061.80 0.05536
1061.90 0.05534
1062.00 0.05532
1062.10 0.0553
1062.20 0.05528
1062.30 0.05526
1062.40 0.05524
1062.50 0.05522
1062.60 0.0552
1062.70 0.05518
1062.80 0.05515
1062.90 0.05513
1063.00 0.05511
1063.10 0.05509
1063.20 0.05507
1063.30 0.05505
1063.40 0.05503
1063.50 0.05501
1063.60 0.05499
1063.70 0.05497
1063.80 0.05494
1063.90 0.05492
1064.00 0.0549
1064.10 0.05488
1064.20 0.05486
1064.30 0.05484
1064.40 0.05482
1064.50 0.0548
1064.60 0.05478
1064.70 0.05476
1064.80 0.05474
1064.90 0.05472
1065.00 0.05469
1065.10 0.05467
1065.20 0.05465
1065.30 0.05463
1065.40 0.05461
1065.50 0.05459
1065.60 0.05457
1065.70 0.05455
1065.80 0.05453
1065.90 0.05451
1066.00 0.05449
1066.10 0.05447
1066.20 0.05444
1066.30 0.05442
1066.40 0.0544
1066.50 0.05438
1066.60 0.05436
1066.70 0.05434
1066.80 0.05432
1066.90 0.0543
1067.00 0.05428
1067.10 0.05426
1067.20 0.05424
1067.30 0.05421
1067.40 0.05419
1067.50 0.05417
1067.60 0.05415
1067.70 0.05413
1067.80 0.05411
1067.90 0.05409
1068.00 0.05407
1068.10 0.05405
1068.20 0.05402
1068.30 0.054
1068.40 0.05398
1068.50 0.05396
1068.60 0.05394
1068.70 0.05392
1068.80 0.0539
1068.90 0.05388
1069.00 0.05386
1069.10 0.05383
1069.20 0.05381
1069.30 0.05379
1069.40 0.05377
1069.50 0.05375
1069.60 0.05373
1069.70 0.05371
1069.80 0.05369
1069.90 0.05367
1070.00 0.05364
1070.10 0.05362
1070.20 0.0536
1070.30 0.05358
1070.40 0.05356
1070.50 0.05354
1070.60 0.05352
1070.70 0.0535
1070.80 0.05348
1070.90 0.05346
1071.00 0.05343
1071.10 0.05341
1071.20 0.05339
1071.30 0.05337
1071.40 0.05335
1071.50 0.05333
1071.60 0.05331
1071.70 0.05329
1071.80 0.05327
1071.90 0.05325
1072.00 0.05323
1072.10 0.0532
1072.20 0.05318
1072.30 0.05316
1072.40 0.05314
1072.50 0.05312
1072.60 0.0531
1072.70 0.05308
1072.80 0.05305
1072.90 0.05303
1073.00 0.05301
1073.10 0.05299
1073.20 0.05297
1073.30 0.05295
1073.40 0.05293
1073.50 0.0529
1073.60 0.05288
1073.70 0.05286
1073.80 0.05284
1073.90 0.05282
1074.00 0.05279
1074.10 0.05277
1074.20 0.05275
1074.30 0.05273
1074.40 0.05271
1074.50 0.05268
1074.60 0.05266
1074.70 0.05264
1074.80 0.05262
1074.90 0.0526
1075.00 0.05257
1075.10 0.05255
1075.20 0.05253
1075.30 0.05251
1075.40 0.05249
1075.50 0.05246
1075.60 0.05244
1075.70 0.05242
1075.80 0.0524
1075.90 0.05238
1076.00 0.05235
1076.10 0.05233
1076.20 0.05231
1076.30 0.05229
1076.40 0.05227
1076.50 0.05224
1076.60 0.05222
1076.70 0.0522
1076.80 0.05218
1076.90 0.05216
1077.00 0.05214
1077.10 0.05211
1077.20 0.05209
1077.30 0.05207
1077.40 0.05204
1077.50 0.05202
1077.60 0.052
1077.70 0.05198
1077.80 0.05195
1077.90 0.05193
1078.00 0.05191
1078.10 0.05188
1078.20 0.05186
1078.30 0.05184
1078.40 0.05181
1078.50 0.05179
1078.60 0.05177
1078.70 0.05174
1078.80 0.05172
1078.90 0.0517
1079.00 0.05167
1079.10 0.05165
1079.20 0.05163
1079.30 0.05161
1079.40 0.05158
1079.50 0.05156
1079.60 0.05153
1079.70 0.05151
1079.80 0.05149
1079.90 0.05146
1080.00 0.05144
1080.10 0.05141
1080.20 0.05139
1080.30 0.05136
1080.40 0.05134
1080.50 0.05132
1080.60 0.05129
1080.70 0.05127
1080.80 0.05124
1080.90 0.05122
1081.00 0.05119
1081.10 0.05117
1081.20 0.05115
1081.30 0.05112
1081.40 0.0511
1081.50 0.05107
1081.60 0.05105
1081.70 0.05102
1081.80 0.051
1081.90 0.05097
1082.00 0.05095
1082.10 0.05092
1082.20 0.0509
1082.30 0.05087
1082.40 0.05084
1082.50 0.05082
1082.60 0.05079
1082.70 0.05077
1082.80 0.05074
1082.90 0.05071
1083.00 0.05069
1083.10 0.05066
1083.20 0.05064
1083.30 0.05061
1083.40 0.05058
1083.50 0.05056
1083.60 0.05053
1083.70 0.0505
1083.80 0.05048
1083.90 0.05045
1084.00 0.05042
1084.10 0.05039
1084.20 0.05037
1084.30 0.05034
1084.40 0.05031
1084.50 0.05028
1084.60 0.05025
1084.70 0.05023
1084.80 0.0502
1084.90 0.05017
1085.00 0.05014
1085.10 0.05011
1085.20 0.05008
1085.30 0.05005
1085.40 0.05002
1085.50 0.04999
1085.60 0.04997
1085.70 0.04994
1085.80 0.04991
1085.90 0.04988
1086.00 0.04985
1086.10 0.04982
1086.20 0.04979
1086.30 0.04976
1086.40 0.04974
1086.50 0.04971
1086.60 0.04968
1086.70 0.04965
1086.80 0.04962
1086.90 0.04959
1087.00 0.04955
1087.10 0.04952
1087.20 0.04949
1087.30 0.04946
1087.40 0.04943
1087.50 0.0494
1087.60 0.04937
1087.70 0.04933
1087.80 0.0493
1087.90 0.04927
1088.00 0.04924
1088.10 0.04921
1088.20 0.04918
1088.30 0.04915
1088.40 0.04912
1088.50 0.04908
1088.60 0.04905
1088.70 0.04902
1088.80 0.04899
1088.90 0.04895
1089.00 0.04892
1089.10 0.04889
1089.20 0.04886
1089.30 0.04882
1089.40 0.04879
1089.50 0.04876
1089.60 0.04873
1089.70 0.04869
1089.80 0.04866
1089.90 0.04863
1090.00 0.0486
1090.10 0.04857
1090.20 0.04853
1090.30 0.0485
1090.40 0.04847
1090.50 0.04844
1090.60 0.04841
1090.70 0.04837
1090.80 0.04834
1090.90 0.04831
1091.00 0.04828
1091.10 0.04825
1091.20 0.04822
1091.30 0.04819
1091.40 0.04816
1091.50 0.04813
1091.60 0.04809
1091.70 0.04806
1091.80 0.04803
1091.90 0.048
1092.00 0.04797
1092.10 0.04794
1092.20 0.04791
1092.30 0.04788
1092.40 0.04785
1092.50 0.04783
1092.60 0.0478
1092.70 0.04777
1092.80 0.04774
1092.90 0.04771
1093.00 0.04768
1093.10 0.04765
1093.20 0.04763
1093.30 0.0476
1093.40 0.04757
1093.50 0.04755
1093.60 0.04754
1093.70 0.04754
1093.80 0.04754
1093.90 0.04753
1094.00 0.0475
1094.10 0.04748
1094.20 0.04745
1094.30 0.04743
1094.40 0.04743
1094.50 0.04742
1094.60 0.04742
1094.70 0.04741
1094.80 0.04741
1094.90 0.0474
1095.00 0.0474
1095.10 0.0474
1095.20 0.04739
1095.30 0.04739
1095.40 0.04738
1095.50 0.04738
1095.60 0.04738
1095.70 0.04737
1095.80 0.04737
1095.90 0.04737
1096.00 0.04736
1096.10 0.04736
1096.20 0.04736
1096.30 0.04735
1096.40 0.04735
1096.50 0.04735
1096.60 0.04734
1096.70 0.04734
1096.80 0.04734
1096.90 0.04734
1097.00 0.04734
1097.10 0.04733
1097.20 0.04733
1097.30 0.04733
1097.40 0.04733
1097.50 0.04733
1097.60 0.04733
1097.70 0.04732
1097.80 0.04732
1097.90 0.04732
1098.00 0.04732
1098.10 0.04732
1098.20 0.04732
1098.30 0.04731
1098.40 0.04731
1098.50 0.04731
1098.60 0.04731
1098.70 0.0473
1098.80 0.0473
1098.90 0.0473
1099.00 0.0473
1099.10 0.04729
1099.20 0.04729
1099.30 0.04729
1099.40 0.04728
1099.50 0.04728
1099.60 0.04728
1099.70 0.04728
1099.80 0.04727
1099.90 0.04727
1100.00 0.04727
1100.10 0.04726
1100.20 0.04726
1100.30 0.04726
1100.40 0.04726
1100.50 0.04725
1100.60 0.04725
1100.70 0.04724
1100.80 0.04724
1100.90 0.04723
1101.00 0.04723
1101.10 0.04722
1101.20 0.04722
1101.30 0.04721
1101.40 0.04721
1101.50 0.0472
1101.60 0.0472
1101.70 0.04719
1101.80 0.04719
1101.90 0.04718
1102.00 0.04718
1102.10 0.04717
1102.20 0.04716
1102.30 0.04716
1102.40 0.04715
1102.50 0.04714
1102.60 0.04714
1102.70 0.04713
1102.80 0.04712
1102.90 0.04712
1103.00 0.04711
1103.10 0.0471
1103.20 0.04709
1103.30 0.04709
1103.40 0.04708
1103.50 0.04707
1103.60 0.04706
1103.70 0.04705
1103.80 0.04704
1103.90 0.04704
1104.00 0.04703
1104.10 0.04702
1104.20 0.04701
1104.30 0.047
1104.40 0.04699
1104.50 0.04698
1104.60 0.04697
1104.70 0.04696
1104.80 0.04695
1104.90 0.04695
1105.00 0.04694
1105.10 0.04693
1105.20 0.04692
1105.30 0.04691
1105.40 0.0469
1105.50 0.04689
1105.60 0.04688
1105.70 0.04687
1105.80 0.04686
1105.90 0.04685
1106.00 0.04684
1106.10 0.04683
1106.20 0.04682
1106.30 0.04681
1106.40 0.0468
1106.50 0.04678
1106.60 0.04677
1106.70 0.04676
1106.80 0.04675
1106.90 0.04674
1107.00 0.04673
1107.10 0.04672
1107.20 0.04671
1107.30 0.0467
1107.40 0.04669
1107.50 0.04667
1107.60 0.04666
1107.70 0.04665
1107.80 0.04664
1107.90 0.04663
1108.00 0.04661
1108.10 0.0466
1108.20 0.04659
1108.30 0.04658
1108.40 0.04656
1108.50 0.04655
1108.60 0.04654
1108.70 0.04653
1108.80 0.04652
1108.90 0.0465
1109.00 0.04649
1109.10 0.04648
1109.20 0.04647
1109.30 0.04646
1109.40 0.04644
1109.50 0.04643
1109.60 0.04642
1109.70 0.04641
1109.80 0.04639
1109.90 0.04638
1110.00 0.04637
1110.10 0.04635
1110.20 0.04634
1110.30 0.04633
1110.40 0.04631
1110.50 0.0463
1110.60 0.04629
1110.70 0.04627
1110.80 0.04626
1110.90 0.04625
1111.00 0.04623
1111.10 0.04622
1111.20 0.04621
1111.30 0.04619
1111.40 0.04618
1111.50 0.04617
1111.60 0.04615
1111.70 0.04614
1111.80 0.04613
1111.90 0.04612
1112.00 0.0461
1112.10 0.04609
1112.20 0.04607
1112.30 0.04606
1112.40 0.04605
1112.50 0.04603
1112.60 0.04602
1112.70 0.04601
1112.80 0.04599
1112.90 0.04598
1113.00 0.04596
1113.10 0.04595
1113.20 0.04594
1113.30 0.04592
1113.40 0.04591
1113.50 0.04589
1113.60 0.04588
1113.70 0.04587
1113.80 0.04585
1113.90 0.04584
1114.00 0.04582
1114.10 0.04581
1114.20 0.04579
1114.30 0.04578
1114.40 0.04577
1114.50 0.04575
1114.60 0.04574
1114.70 0.04572
1114.80 0.04571
1114.90 0.04569
1115.00 0.04568
1115.10 0.04567
1115.20 0.04565
1115.30 0.04564
1115.40 0.04562
1115.50 0.04561
1115.60 0.04559
1115.70 0.04558
1115.80 0.04557
1115.90 0.04555
1116.00 0.04554
1116.10 0.04552
1116.20 0.04551
1116.30 0.04549
1116.40 0.04548
1116.50 0.04547
1116.60 0.04545
1116.70 0.04544
1116.80 0.04542
1116.90 0.04541
1117.00 0.04539
1117.10 0.04538
1117.20 0.04536
1117.30 0.04535
1117.40 0.04533
1117.50 0.04532
1117.60 0.04531
1117.70 0.04529
1117.80 0.04528
1117.90 0.04526
1118.00 0.04525
1118.10 0.04523
1118.20 0.04522
1118.30 0.0452
1118.40 0.04519
1118.50 0.04517
1118.60 0.04516
1118.70 0.04514
1118.80 0.04513
1118.90 0.04511
1119.00 0.0451
1119.10 0.04508
1119.20 0.04507
1119.30 0.04505
1119.40 0.04504
1119.50 0.04502
1119.60 0.04501
1119.70 0.04499
1119.80 0.04498
1119.90 0.04497
1120.00 0.04495
1120.10 0.04494
1120.20 0.04492
1120.30 0.04491
1120.40 0.04489
1120.50 0.04488
1120.60 0.04486
1120.70 0.04485
1120.80 0.04483
1120.90 0.04482
1121.00 0.0448
1121.10 0.04479
1121.20 0.04477
1121.30 0.04476
1121.40 0.04475
1121.50 0.04473
1121.60 0.04472
1121.70 0.0447
1121.80 0.04469
1121.90 0.04467
1122.00 0.04466
1122.10 0.04464
1122.20 0.04463
1122.30 0.04461
1122.40 0.0446
1122.50 0.04458
1122.60 0.04457
1122.70 0.04455
1122.80 0.04454
1122.90 0.04452
1123.00 0.04451
1123.10 0.04449
1123.20 0.04448
1123.30 0.04446
1123.40 0.04445
1123.50 0.04443
1123.60 0.04442
1123.70 0.0444
1123.80 0.04439
1123.90 0.04437
1124.00 0.04436
1124.10 0.04434
1124.20 0.04433
1124.30 0.04431
1124.40 0.0443
1124.50 0.04428
1124.60 0.04427
1124.70 0.04426
1124.80 0.04424
1124.90 0.04423
1125.00 0.04421
1125.10 0.0442
1125.20 0.04418
1125.30 0.04417
1125.40 0.04415
1125.50 0.04414
1125.60 0.04412
1125.70 0.04411
1125.80 0.04409
1125.90 0.04408
1126.00 0.04406
1126.10 0.04405
1126.20 0.04403
1126.30 0.04402
1126.40 0.044
1126.50 0.04399
1126.60 0.04397
1126.70 0.04396
1126.80 0.04394
1126.90 0.04393
1127.00 0.04392
1127.10 0.0439
1127.20 0.04389
1127.30 0.04387
1127.40 0.04386
1127.50 0.04384
1127.60 0.04383
1127.70 0.04381
1127.80 0.0438
1127.90 0.04378
1128.00 0.04377
1128.10 0.04375
1128.20 0.04374
1128.30 0.04372
1128.40 0.04371
1128.50 0.04369
1128.60 0.04368
1128.70 0.04366
1128.80 0.04365
1128.90 0.04363
1129.00 0.04362
1129.10 0.0436
1129.20 0.04359
1129.30 0.04358
1129.40 0.04356
1129.50 0.04355
1129.60 0.04353
1129.70 0.04352
1129.80 0.0435
1129.90 0.04349
1130.00 0.04347
1130.10 0.04346
1130.20 0.04344
1130.30 0.04343
1130.40 0.04341
1130.50 0.0434
1130.60 0.04338
1130.70 0.04337
1130.80 0.04335
1130.90 0.04334
1131.00 0.04333
1131.10 0.04331
1131.20 0.0433
1131.30 0.04328
1131.40 0.04327
1131.50 0.04325
1131.60 0.04324
1131.70 0.04322
1131.80 0.04321
1131.90 0.04319
1132.00 0.04318
1132.10 0.04316
1132.20 0.04315
1132.30 0.04313
1132.40 0.04312
1132.50 0.04311
1132.60 0.04309
1132.70 0.04308
1132.80 0.04306
1132.90 0.04305
1133.00 0.04303
1133.10 0.04302
1133.20 0.043
1133.30 0.04299
1133.40 0.04297
1133.50 0.04296
1133.60 0.04294
1133.70 0.04293
1133.80 0.04292
1133.90 0.0429
1134.00 0.04289
1134.10 0.04287
1134.20 0.04286
1134.30 0.04284
1134.40 0.04283
1134.50 0.04281
1134.60 0.0428
1134.70 0.04278
1134.80 0.04277
1134.90 0.04276
1135.00 0.04274
1135.10 0.04273
1135.20 0.04271
1135.30 0.0427
1135.40 0.04268
1135.50 0.04267
1135.60 0.04265
1135.70 0.04264
1135.80 0.04262
1135.90 0.04261
1136.00 0.0426
1136.10 0.04258
1136.20 0.04257
1136.30 0.04255
1136.40 0.04254
1136.50 0.04252
1136.60 0.04251
1136.70 0.04249
1136.80 0.04248
1136.90 0.04247
1137.00 0.04245
1137.10 0.04244
1137.20 0.04242
1137.30 0.04241
1137.40 0.04239
1137.50 0.04238
1137.60 0.04236
1137.70 0.04235
1137.80 0.04234
1137.90 0.04232
1138.00 0.04231
1138.10 0.04229
1138.20 0.04228
1138.30 0.04226
1138.40 0.04225
1138.50 0.04224
1138.60 0.04222
1138.70 0.04221
1138.80 0.04219
1138.90 0.04218
1139.00 0.04216
1139.10 0.04215
1139.20 0.04214
1139.30 0.04212
1139.40 0.04211
1139.50 0.04209
1139.60 0.04208
1139.70 0.04206
1139.80 0.04205
1139.90 0.04204
1140.00 0.04202
1140.10 0.04201
1140.20 0.04199
1140.30 0.04198
1140.40 0.04196
1140.50 0.04195
1140.60 0.04194
1140.70 0.04192
1140.80 0.04191
1140.90 0.04189
1141.00 0.04188
1141.10 0.04186
1141.20 0.04185
1141.30 0.04184
1141.40 0.04182
1141.50 0.04181
1141.60 0.04179
1141.70 0.04178
1141.80 0.04176
1141.90 0.04175
1142.00 0.04174
1142.10 0.04172
1142.20 0.04171
1142.30 0.04169
1142.40 0.04168
1142.50 0.04167
1142.60 0.04165
1142.70 0.04164
1142.80 0.04162
1142.90 0.04161
1143.00 0.04159
1143.10 0.04158
1143.20 0.04157
1143.30 0.04155
1143.40 0.04154
1143.50 0.04152
1143.60 0.04151
1143.70 0.0415
1143.80 0.04148
1143.90 0.04147
1144.00 0.04145
1144.10 0.04144
1144.20 0.04143
1144.30 0.04141
1144.40 0.0414
1144.50 0.04138
1144.60 0.04137
1144.70 0.04136
1144.80 0.04134
1144.90 0.04133
1145.00 0.04131
1145.10 0.0413
1145.20 0.04129
1145.30 0.04127
1145.40 0.04126
1145.50 0.04124
1145.60 0.04123
1145.70 0.04122
1145.80 0.0412
1145.90 0.04119
1146.00 0.04117
1146.10 0.04116
1146.20 0.04115
1146.30 0.04113
1146.40 0.04112
1146.50 0.0411
1146.60 0.04109
1146.70 0.04108
1146.80 0.04106
1146.90 0.04105
1147.00 0.04103
1147.10 0.04102
1147.20 0.04101
1147.30 0.04099
1147.40 0.04098
1147.50 0.04096
1147.60 0.04095
1147.70 0.04094
1147.80 0.04092
1147.90 0.04091
1148.00 0.0409
1148.10 0.04088
1148.20 0.04087
1148.30 0.04085
1148.40 0.04084
1148.50 0.04083
1148.60 0.04081
1148.70 0.0408
1148.80 0.04078
1148.90 0.04077
1149.00 0.04076
1149.10 0.04074
1149.20 0.04073
1149.30 0.04072
1149.40 0.0407
1149.50 0.04069
1149.60 0.04067
1149.70 0.04066
1149.80 0.04065
1149.90 0.04063
1150.00 0.04062
1150.10 0.04061
1150.20 0.04059
1150.30 0.04058
1150.40 0.04056
1150.50 0.04055
1150.60 0.04054
1150.70 0.04052
1150.80 0.04051
1150.90 0.0405
1151.00 0.04048
1151.10 0.04047
1151.20 0.04045
1151.30 0.04044
1151.40 0.04043
1151.50 0.04041
1151.60 0.0404
1151.70 0.04039
1151.80 0.04037
1151.90 0.04036
1152.00 0.04034
1152.10 0.04033
1152.20 0.04032
1152.30 0.0403
1152.40 0.04029
1152.50 0.04028
1152.60 0.04026
1152.70 0.04025
1152.80 0.04024
1152.90 0.04022
1153.00 0.04021
1153.10 0.0402
1153.20 0.04018
1153.30 0.04017
1153.40 0.04015
1153.50 0.04014
1153.60 0.04013
1153.70 0.04011
1153.80 0.0401
1153.90 0.04009
1154.00 0.04007
1154.10 0.04006
1154.20 0.04005
1154.30 0.04003
1154.40 0.04002
1154.50 0.04001
1154.60 0.03999
1154.70 0.03998
1154.80 0.03997
1154.90 0.03995
1155.00 0.03994
1155.10 0.03993
1155.20 0.03991
1155.30 0.0399
1155.40 0.03988
1155.50 0.03987
1155.60 0.03986
1155.70 0.03984
1155.80 0.03983
1155.90 0.03982
1156.00 0.0398
1156.10 0.03979
1156.20 0.03978
1156.30 0.03976
1156.40 0.03975
1156.50 0.03974
1156.60 0.03972
1156.70 0.03971
1156.80 0.0397
1156.90 0.03968
1157.00 0.03967
1157.10 0.03966
1157.20 0.03964
1157.30 0.03963
1157.40 0.03962
1157.50 0.0396
1157.60 0.03959
1157.70 0.03958
1157.80 0.03956
1157.90 0.03955
1158.00 0.03954
1158.10 0.03952
1158.20 0.03951
1158.30 0.0395
1158.40 0.03948
1158.50 0.03947
1158.60 0.03946
1158.70 0.03944
1158.80 0.03943
1158.90 0.03942
1159.00 0.0394
1159.10 0.03939
1159.20 0.03938
1159.30 0.03936
1159.40 0.03935
1159.50 0.03934
1159.60 0.03932
1159.70 0.03931
1159.80 0.0393
1159.90 0.03928
1160.00 0.03927
1160.10 0.03926
1160.20 0.03924
1160.30 0.03923
1160.40 0.03922
1160.50 0.03921
1160.60 0.03919
1160.70 0.03918
1160.80 0.03917
1160.90 0.03915
1161.00 0.03914
1161.10 0.03913
1161.20 0.03911
1161.30 0.0391
1161.40 0.03909
1161.50 0.03907
1161.60 0.03906
1161.70 0.03905
1161.80 0.03903
1161.90 0.03902
1162.00 0.03901
1162.10 0.03899
1162.20 0.03898
1162.30 0.03897
1162.40 0.03896
1162.50 0.03894
1162.60 0.03893
1162.70 0.03892
1162.80 0.0389
1162.90 0.03889
1163.00 0.03888
1163.10 0.03886
1163.20 0.03885
1163.30 0.03884
1163.40 0.03883
1163.50 0.03881
1163.60 0.0388
1163.70 0.03879
1163.80 0.03877
1163.90 0.03876
1164.00 0.03875
1164.10 0.03873
1164.20 0.03872
1164.30 0.03871
1164.40 0.0387
1164.50 0.03868
1164.60 0.03867
1164.70 0.03866
1164.80 0.03864
1164.90 0.03863
1165.00 0.03862
1165.10 0.0386
1165.20 0.03859
1165.30 0.03858
1165.40 0.03857
1165.50 0.03855
1165.60 0.03854
1165.70 0.03853
1165.80 0.03851
1165.90 0.0385
1166.00 0.03849
1166.10 0.03848
1166.20 0.03846
1166.30 0.03845
1166.40 0.03844
1166.50 0.03842
1166.60 0.03841
1166.70 0.0384
1166.80 0.03839
1166.90 0.03837
1167.00 0.03836
1167.10 0.03835
1167.20 0.03833
1167.30 0.03832
1167.40 0.03831
1167.50 0.0383
1167.60 0.03828
1167.70 0.03827
1167.80 0.03826
1167.90 0.03824
1168.00 0.03823
1168.10 0.03822
1168.20 0.03821
1168.30 0.03819
1168.40 0.03818
1168.50 0.03817
1168.60 0.03816
1168.70 0.03814
1168.80 0.03813
1168.90 0.03812
1169.00 0.0381
1169.10 0.03809
1169.20 0.03808
1169.30 0.03807
1169.40 0.03805
1169.50 0.03804
1169.60 0.03803
1169.70 0.03802
1169.80 0.038
1169.90 0.03799
1170.00 0.03798
1170.10 0.03796
1170.20 0.03795
1170.30 0.03794
1170.40 0.03793
1170.50 0.03791
1170.60 0.0379
1170.70 0.03789
1170.80 0.03788
1170.90 0.03786
1171.00 0.03785
1171.10 0.03784
1171.20 0.03783
1171.30 0.03781
1171.40 0.0378
1171.50 0.03779
1171.60 0.03777
1171.70 0.03776
1171.80 0.03775
1171.90 0.03774
1172.00 0.03772
1172.10 0.03771
1172.20 0.0377
1172.30 0.03769
1172.40 0.03767
1172.50 0.03766
1172.60 0.03765
1172.70 0.03764
1172.80 0.03762
1172.90 0.03761
1173.00 0.0376
1173.10 0.03759
1173.20 0.03757
1173.30 0.03756
1173.40 0.03755
1173.50 0.03754
1173.60 0.03752
1173.70 0.03751
1173.80 0.0375
1173.90 0.03749
1174.00 0.03747
1174.10 0.03746
1174.20 0.03745
1174.30 0.03744
1174.40 0.03742
1174.50 0.03741
1174.60 0.0374
1174.70 0.03739
1174.80 0.03737
1174.90 0.03736
1175.00 0.03735
1175.10 0.03734
1175.20 0.03732
1175.30 0.03731
1175.40 0.0373
1175.50 0.03729
1175.60 0.03728
1175.70 0.03726
1175.80 0.03725
1175.90 0.03724
1176.00 0.03723
1176.10 0.03721
1176.20 0.0372
1176.30 0.03719
1176.40 0.03718
1176.50 0.03716
1176.60 0.03715
1176.70 0.03714
1176.80 0.03713
1176.90 0.03711
1177.00 0.0371
1177.10 0.03709
1177.20 0.03708
1177.30 0.03706
1177.40 0.03705
1177.50 0.03704
1177.60 0.03703
1177.70 0.03702
1177.80 0.037
1177.90 0.03699
1178.00 0.03698
1178.10 0.03697
1178.20 0.03695
1178.30 0.03694
1178.40 0.03693
1178.50 0.03692
1178.60 0.03691
1178.70 0.03689
1178.80 0.03688
1178.90 0.03687
1179.00 0.03686
1179.10 0.03684
1179.20 0.03683
1179.30 0.03682
1179.40 0.03681
1179.50 0.0368
1179.60 0.03678
1179.70 0.03677
1179.80 0.03676
1179.90 0.03675
1180.00 0.03673
1180.10 0.03672
1180.20 0.03671
1180.30 0.0367
1180.40 0.03669
1180.50 0.03667
1180.60 0.03666
1180.70 0.03665
1180.80 0.03664
1180.90 0.03663
1181.00 0.03661
1181.10 0.0366
1181.20 0.03659
1181.30 0.03658
1181.40 0.03656
1181.50 0.03655
1181.60 0.03654
1181.70 0.03653
1181.80 0.03652
1181.90 0.0365
1182.00 0.03649
1182.10 0.03648
1182.20 0.03647
1182.30 0.03646
1182.40 0.03644
1182.50 0.03643
1182.60 0.03642
1182.70 0.03641
1182.80 0.0364
1182.90 0.03638
1183.00 0.03637
1183.10 0.03636
1183.20 0.03635
1183.30 0.03634
1183.40 0.03632
1183.50 0.03631
1183.60 0.0363
1183.70 0.03629
1183.80 0.03628
1183.90 0.03626
1184.00 0.03625
1184.10 0.03624
1184.20 0.03623
1184.30 0.03622
1184.40 0.0362
1184.50 0.03619
1184.60 0.03618
1184.70 0.03617
1184.80 0.03616
1184.90 0.03614
1185.00 0.03613
1185.10 0.03612
1185.20 0.03611
1185.30 0.0361
1185.40 0.03608
1185.50 0.03607
1185.60 0.03606
1185.70 0.03605
1185.80 0.03604
1185.90 0.03603
1186.00 0.03601
1186.10 0.036
1186.20 0.03599
1186.30 0.03598
1186.40 0.03597
1186.50 0.03595
1186.60 0.03594
1186.70 0.03593
1186.80 0.03592
1186.90 0.03591
1187.00 0.03589
1187.10 0.03588
1187.20 0.03587
1187.30 0.03586
1187.40 0.03585
1187.50 0.03584
1187.60 0.03582
1187.70 0.03581
1187.80 0.0358
1187.90 0.03579
1188.00 0.03578
1188.10 0.03576
1188.20 0.03575
1188.30 0.03574
1188.40 0.03573
1188.50 0.03572
1188.60 0.03571
1188.70 0.03569
1188.80 0.03568
1188.90 0.03567
1189.00 0.03566
1189.10 0.03565
1189.20 0.03564
1189.30 0.03562
1189.40 0.03561
1189.50 0.0356
1189.60 0.03559
1189.70 0.03558
1189.80 0.03557
1189.90 0.03555
1190.00 0.03554
1190.10 0.03553
1190.20 0.03552
1190.30 0.03551
1190.40 0.0355
1190.50 0.03548
1190.60 0.03547
1190.70 0.03546
1190.80 0.03545
1190.90 0.03544
1191.00 0.03543
1191.10 0.03541
1191.20 0.0354
1191.30 0.03539
1191.40 0.03538
1191.50 0.03537
1191.60 0.03536
1191.70 0.03534
1191.80 0.03533
1191.90 0.03532
1192.00 0.03531
1192.10 0.0353
1192.20 0.03529
1192.30 0.03527
1192.40 0.03526
1192.50 0.03525
1192.60 0.03524
1192.70 0.03523
1192.80 0.03522
1192.90 0.03521
1193.00 0.03519
1193.10 0.03518
1193.20 0.03517
1193.30 0.03516
1193.40 0.03515
1193.50 0.03514
1193.60 0.03512
1193.70 0.03511
1193.80 0.0351
1193.90 0.03509
1194.00 0.03508
1194.10 0.03507
1194.20 0.03506
1194.30 0.03504
1194.40 0.03503
1194.50 0.03502
1194.60 0.03501
1194.70 0.035
1194.80 0.03499
1194.90 0.03498
1195.00 0.03496
1195.10 0.03495
1195.20 0.03494
1195.30 0.03493
1195.40 0.03492
1195.50 0.03491
1195.60 0.03489
1195.70 0.03488
1195.80 0.03487
1195.90 0.03486
1196.00 0.03485
1196.10 0.03484
1196.20 0.03483
1196.30 0.03482
1196.40 0.0348
1196.50 0.03479
1196.60 0.03478
1196.70 0.03477
1196.80 0.03476
1196.90 0.03475
1197.00 0.03474
1197.10 0.03472
1197.20 0.03471
1197.30 0.0347
1197.40 0.03469
1197.50 0.03468
1197.60 0.03467
1197.70 0.03466
1197.80 0.03464
1197.90 0.03463
1198.00 0.03462
1198.10 0.03461
1198.20 0.0346
1198.30 0.03459
1198.40 0.03458
1198.50 0.03457
1198.60 0.03455
1198.70 0.03454
1198.80 0.03453
1198.90 0.03452
1199.00 0.03451
1199.10 0.0345
1199.20 0.03449
1199.30 0.03448
1199.40 0.03446
1199.50 0.03445
1199.60 0.03444
1199.70 0.03443
1199.80 0.03442
1199.90 0.03441
1200.00 0
