# Version 2.1 - nm, norm@500 to 1, cut digits, bergeron_15000_80.dat_15000
# Wavelength(nm)  Flambda(ergs/cm^s/s/nm)
300.00 2.286
300.10 2.284
300.20 2.282
300.30 2.28
300.40 2.279
300.50 2.277
300.60 2.275
300.70 2.273
300.80 2.271
300.90 2.27
301.00 2.268
301.10 2.266
301.20 2.264
301.30 2.263
301.40 2.261
301.50 2.259
301.60 2.257
301.70 2.255
301.80 2.254
301.90 2.252
302.00 2.25
302.10 2.248
302.20 2.247
302.30 2.245
302.40 2.243
302.50 2.241
302.60 2.24
302.70 2.238
302.80 2.236
302.90 2.234
303.00 2.233
303.10 2.231
303.20 2.229
303.30 2.227
303.40 2.226
303.50 2.224
303.60 2.222
303.70 2.22
303.80 2.219
303.90 2.217
304.00 2.215
304.10 2.213
304.20 2.212
304.30 2.21
304.40 2.208
304.50 2.207
304.60 2.205
304.70 2.203
304.80 2.201
304.90 2.2
305.00 2.198
305.10 2.196
305.20 2.195
305.30 2.193
305.40 2.191
305.50 2.19
305.60 2.188
305.70 2.186
305.80 2.184
305.90 2.183
306.00 2.181
306.10 2.179
306.20 2.178
306.30 2.176
306.40 2.174
306.50 2.173
306.60 2.171
306.70 2.169
306.80 2.168
306.90 2.166
307.00 2.164
307.10 2.163
307.20 2.161
307.30 2.159
307.40 2.158
307.50 2.156
307.60 2.154
307.70 2.153
307.80 2.151
307.90 2.149
308.00 2.148
308.10 2.146
308.20 2.144
308.30 2.143
308.40 2.141
308.50 2.139
308.60 2.138
308.70 2.136
308.80 2.134
308.90 2.133
309.00 2.131
309.10 2.129
309.20 2.128
309.30 2.126
309.40 2.125
309.50 2.123
309.60 2.121
309.70 2.12
309.80 2.118
309.90 2.116
310.00 2.115
310.10 2.113
310.20 2.112
310.30 2.11
310.40 2.108
310.50 2.107
310.60 2.105
310.70 2.103
310.80 2.102
310.90 2.1
311.00 2.099
311.10 2.097
311.20 2.095
311.30 2.094
311.40 2.092
311.50 2.091
311.60 2.089
311.70 2.087
311.80 2.086
311.90 2.084
312.00 2.083
312.10 2.081
312.20 2.079
312.30 2.078
312.40 2.076
312.50 2.075
312.60 2.073
312.70 2.072
312.80 2.07
312.90 2.068
313.00 2.067
313.10 2.065
313.20 2.064
313.30 2.062
313.40 2.061
313.50 2.059
313.60 2.057
313.70 2.056
313.80 2.054
313.90 2.053
314.00 2.051
314.10 2.05
314.20 2.048
314.30 2.047
314.40 2.045
314.50 2.043
314.60 2.042
314.70 2.04
314.80 2.039
314.90 2.037
315.00 2.036
315.10 2.034
315.20 2.033
315.30 2.031
315.40 2.03
315.50 2.028
315.60 2.026
315.70 2.025
315.80 2.023
315.90 2.022
316.00 2.02
316.10 2.019
316.20 2.017
316.30 2.016
316.40 2.014
316.50 2.013
316.60 2.011
316.70 2.01
316.80 2.008
316.90 2.007
317.00 2.005
317.10 2.004
317.20 2.002
317.30 2.001
317.40 1.999
317.50 1.998
317.60 1.996
317.70 1.995
317.80 1.993
317.90 1.992
318.00 1.99
318.10 1.989
318.20 1.987
318.30 1.986
318.40 1.984
318.50 1.983
318.60 1.981
318.70 1.98
318.80 1.978
318.90 1.977
319.00 1.975
319.10 1.974
319.20 1.972
319.30 1.971
319.40 1.969
319.50 1.968
319.60 1.966
319.70 1.965
319.80 1.964
319.90 1.962
320.00 1.961
320.10 1.959
320.20 1.958
320.30 1.956
320.40 1.955
320.50 1.953
320.60 1.952
320.70 1.95
320.80 1.949
320.90 1.947
321.00 1.946
321.10 1.945
321.20 1.943
321.30 1.942
321.40 1.94
321.50 1.939
321.60 1.937
321.70 1.936
321.80 1.934
321.90 1.933
322.00 1.932
322.10 1.93
322.20 1.929
322.30 1.927
322.40 1.926
322.50 1.924
322.60 1.923
322.70 1.922
322.80 1.92
322.90 1.919
323.00 1.917
323.10 1.916
323.20 1.914
323.30 1.913
323.40 1.912
323.50 1.91
323.60 1.909
323.70 1.907
323.80 1.906
323.90 1.905
324.00 1.903
324.10 1.902
324.20 1.9
324.30 1.899
324.40 1.897
324.50 1.896
324.60 1.895
324.70 1.893
324.80 1.892
324.90 1.89
325.00 1.889
325.10 1.888
325.20 1.886
325.30 1.885
325.40 1.884
325.50 1.882
325.60 1.881
325.70 1.879
325.80 1.878
325.90 1.877
326.00 1.875
326.10 1.874
326.20 1.872
326.30 1.871
326.40 1.87
326.50 1.868
326.60 1.867
326.70 1.866
326.80 1.864
326.90 1.863
327.00 1.861
327.10 1.86
327.20 1.859
327.30 1.857
327.40 1.856
327.50 1.855
327.60 1.853
327.70 1.852
327.80 1.851
327.90 1.849
328.00 1.848
328.10 1.847
328.20 1.845
328.30 1.844
328.40 1.842
328.50 1.841
328.60 1.84
328.70 1.838
328.80 1.837
328.90 1.836
329.00 1.834
329.10 1.833
329.20 1.832
329.30 1.83
329.40 1.829
329.50 1.828
329.60 1.826
329.70 1.825
329.80 1.824
329.90 1.822
330.00 1.821
330.10 1.82
330.20 1.818
330.30 1.817
330.40 1.816
330.50 1.814
330.60 1.813
330.70 1.812
330.80 1.81
330.90 1.809
331.00 1.808
331.10 1.807
331.20 1.805
331.30 1.804
331.40 1.803
331.50 1.801
331.60 1.8
331.70 1.799
331.80 1.797
331.90 1.796
332.00 1.795
332.10 1.793
332.20 1.792
332.30 1.791
332.40 1.79
332.50 1.788
332.60 1.787
332.70 1.786
332.80 1.784
332.90 1.783
333.00 1.782
333.10 1.781
333.20 1.779
333.30 1.778
333.40 1.777
333.50 1.775
333.60 1.774
333.70 1.773
333.80 1.772
333.90 1.77
334.00 1.769
334.10 1.768
334.20 1.766
334.30 1.765
334.40 1.764
334.50 1.763
334.60 1.761
334.70 1.76
334.80 1.759
334.90 1.758
335.00 1.756
335.10 1.755
335.20 1.754
335.30 1.752
335.40 1.751
335.50 1.75
335.60 1.749
335.70 1.747
335.80 1.746
335.90 1.745
336.00 1.744
336.10 1.742
336.20 1.741
336.30 1.74
336.40 1.739
336.50 1.737
336.60 1.736
336.70 1.735
336.80 1.734
336.90 1.732
337.00 1.731
337.10 1.73
337.20 1.729
337.30 1.727
337.40 1.726
337.50 1.725
337.60 1.724
337.70 1.723
337.80 1.721
337.90 1.72
338.00 1.719
338.10 1.718
338.20 1.716
338.30 1.715
338.40 1.714
338.50 1.713
338.60 1.711
338.70 1.71
338.80 1.709
338.90 1.708
339.00 1.707
339.10 1.705
339.20 1.704
339.30 1.703
339.40 1.702
339.50 1.701
339.60 1.699
339.70 1.698
339.80 1.697
339.90 1.696
340.00 1.694
340.10 1.693
340.20 1.692
340.30 1.691
340.40 1.69
340.50 1.688
340.60 1.687
340.70 1.686
340.80 1.685
340.90 1.684
341.00 1.682
341.10 1.681
341.20 1.68
341.30 1.679
341.40 1.678
341.50 1.677
341.60 1.675
341.70 1.674
341.80 1.673
341.90 1.672
342.00 1.671
342.10 1.669
342.20 1.668
342.30 1.667
342.40 1.666
342.50 1.665
342.60 1.663
342.70 1.662
342.80 1.661
342.90 1.66
343.00 1.659
343.10 1.658
343.20 1.656
343.30 1.655
343.40 1.654
343.50 1.653
343.60 1.652
343.70 1.651
343.80 1.649
343.90 1.648
344.00 1.647
344.10 1.646
344.20 1.645
344.30 1.644
344.40 1.642
344.50 1.641
344.60 1.64
344.70 1.639
344.80 1.638
344.90 1.637
345.00 1.636
345.10 1.634
345.20 1.633
345.30 1.632
345.40 1.631
345.50 1.63
345.60 1.629
345.70 1.628
345.80 1.626
345.90 1.625
346.00 1.624
346.10 1.623
346.20 1.622
346.30 1.621
346.40 1.62
346.50 1.618
346.60 1.617
346.70 1.616
346.80 1.615
346.90 1.614
347.00 1.613
347.10 1.612
347.20 1.61
347.30 1.609
347.40 1.608
347.50 1.607
347.60 1.606
347.70 1.605
347.80 1.604
347.90 1.603
348.00 1.601
348.10 1.6
348.20 1.599
348.30 1.598
348.40 1.597
348.50 1.596
348.60 1.595
348.70 1.594
348.80 1.593
348.90 1.591
349.00 1.59
349.10 1.589
349.20 1.588
349.30 1.587
349.40 1.586
349.50 1.585
349.60 1.584
349.70 1.583
349.80 1.581
349.90 1.58
350.00 1.579
350.10 1.578
350.20 1.577
350.30 1.576
350.40 1.575
350.50 1.574
350.60 1.573
350.70 1.572
350.80 1.571
350.90 1.569
351.00 1.568
351.10 1.567
351.20 1.566
351.30 1.565
351.40 1.564
351.50 1.563
351.60 1.562
351.70 1.561
351.80 1.56
351.90 1.559
352.00 1.557
352.10 1.556
352.20 1.555
352.30 1.554
352.40 1.553
352.50 1.552
352.60 1.551
352.70 1.55
352.80 1.549
352.90 1.548
353.00 1.547
353.10 1.546
353.20 1.545
353.30 1.544
353.40 1.542
353.50 1.541
353.60 1.54
353.70 1.539
353.80 1.538
353.90 1.537
354.00 1.536
354.10 1.535
354.20 1.534
354.30 1.533
354.40 1.532
354.50 1.531
354.60 1.53
354.70 1.529
354.80 1.528
354.90 1.527
355.00 1.526
355.10 1.524
355.20 1.523
355.30 1.522
355.40 1.521
355.50 1.52
355.60 1.519
355.70 1.518
355.80 1.517
355.90 1.516
356.00 1.515
356.10 1.514
356.20 1.513
356.30 1.512
356.40 1.511
356.50 1.51
356.60 1.509
356.70 1.508
356.80 1.507
356.90 1.506
357.00 1.505
357.10 1.504
357.20 1.503
357.30 1.502
357.40 1.501
357.50 1.5
357.60 1.499
357.70 1.497
357.80 1.496
357.90 1.495
358.00 1.494
358.10 1.493
358.20 1.492
358.30 1.491
358.40 1.49
358.50 1.489
358.60 1.488
358.70 1.487
358.80 1.486
358.90 1.485
359.00 1.484
359.10 1.483
359.20 1.482
359.30 1.481
359.40 1.48
359.50 1.479
359.60 1.478
359.70 1.477
359.80 1.476
359.90 1.475
360.00 1.474
360.10 1.473
360.20 1.472
360.30 1.471
360.40 1.47
360.50 1.469
360.60 1.468
360.70 1.467
360.80 1.466
360.90 1.465
361.00 1.464
361.10 1.463
361.20 1.462
361.30 1.461
361.40 1.46
361.50 1.459
361.60 1.458
361.70 1.457
361.80 1.456
361.90 1.455
362.00 1.454
362.10 1.453
362.20 1.452
362.30 1.451
362.40 1.45
362.50 1.449
362.60 1.448
362.70 1.447
362.80 1.446
362.90 1.445
363.00 1.444
363.10 1.443
363.20 1.442
363.30 1.441
363.40 1.44
363.50 1.439
363.60 1.438
363.70 1.437
363.80 1.436
363.90 1.435
364.00 1.434
364.10 1.433
364.20 1.432
364.30 1.431
364.40 1.429
364.50 1.428
364.60 1.427
364.70 1.426
364.80 1.425
364.90 1.424
365.00 1.423
365.10 1.422
365.20 1.421
365.30 1.42
365.40 1.419
365.50 1.418
365.60 1.416
365.70 1.415
365.80 1.414
365.90 1.413
366.00 1.412
366.10 1.411
366.20 1.41
366.30 1.409
366.40 1.408
366.50 1.407
366.60 1.406
366.70 1.405
366.80 1.404
366.90 1.403
367.00 1.402
367.10 1.401
367.20 1.4
367.30 1.399
367.40 1.398
367.50 1.397
367.60 1.397
367.70 1.396
367.80 1.395
367.90 1.394
368.00 1.393
368.10 1.392
368.20 1.391
368.30 1.39
368.40 1.389
368.50 1.388
368.60 1.388
368.70 1.387
368.80 1.386
368.90 1.385
369.00 1.384
369.10 1.383
369.20 1.383
369.30 1.382
369.40 1.381
369.50 1.38
369.60 1.379
369.70 1.378
369.80 1.378
369.90 1.377
370.00 1.376
370.10 1.376
370.20 1.375
370.30 1.375
370.40 1.375
370.50 1.374
370.60 1.374
370.70 1.373
370.80 1.373
370.90 1.373
371.00 1.372
371.10 1.372
371.20 1.372
371.30 1.371
371.40 1.371
371.50 1.371
371.60 1.37
371.70 1.37
371.80 1.37
371.90 1.369
372.00 1.369
372.10 1.369
372.20 1.37
372.30 1.37
372.40 1.37
372.50 1.371
372.60 1.371
372.70 1.371
372.80 1.372
372.90 1.372
373.00 1.373
373.10 1.373
373.20 1.373
373.30 1.374
373.40 1.374
373.50 1.375
373.60 1.375
373.70 1.375
373.80 1.376
373.90 1.376
374.00 1.376
374.10 1.377
374.20 1.378
374.30 1.379
374.40 1.38
374.50 1.381
374.60 1.381
374.70 1.382
374.80 1.383
374.90 1.384
375.00 1.385
375.10 1.385
375.20 1.386
375.30 1.387
375.40 1.388
375.50 1.389
375.60 1.389
375.70 1.39
375.80 1.391
375.90 1.392
376.00 1.393
376.10 1.393
376.20 1.393
376.30 1.394
376.40 1.394
376.50 1.395
376.60 1.395
376.70 1.395
376.80 1.396
376.90 1.396
377.00 1.396
377.10 1.395
377.20 1.394
377.30 1.393
377.40 1.392
377.50 1.391
377.60 1.39
377.70 1.389
377.80 1.388
377.90 1.387
378.00 1.386
378.10 1.381
378.20 1.376
378.30 1.37
378.40 1.365
378.50 1.36
378.60 1.354
378.70 1.349
378.80 1.344
378.90 1.339
379.00 1.333
379.10 1.33
379.20 1.326
379.30 1.322
379.40 1.318
379.50 1.315
379.60 1.311
379.70 1.307
379.80 1.304
379.90 1.3
380.00 1.296
380.10 1.302
380.20 1.307
380.30 1.312
380.40 1.318
380.50 1.323
380.60 1.328
380.70 1.334
380.80 1.339
380.90 1.344
381.00 1.35
381.10 1.351
381.20 1.353
381.30 1.355
381.40 1.356
381.50 1.358
381.60 1.357
381.70 1.355
381.80 1.352
381.90 1.348
382.00 1.344
382.10 1.338
382.20 1.331
382.30 1.318
382.40 1.305
382.50 1.293
382.60 1.28
382.70 1.267
382.80 1.255
382.90 1.242
383.00 1.229
383.10 1.217
383.20 1.204
383.30 1.195
383.40 1.184
383.50 1.173
383.60 1.175
383.70 1.187
383.80 1.198
383.90 1.207
384.00 1.219
384.10 1.235
384.20 1.251
384.30 1.268
384.40 1.284
384.50 1.298
384.60 1.311
384.70 1.323
384.80 1.333
384.90 1.342
385.00 1.35
385.10 1.357
385.20 1.362
385.30 1.367
385.40 1.37
385.50 1.373
385.60 1.375
385.70 1.376
385.80 1.377
385.90 1.376
386.00 1.375
386.10 1.373
386.20 1.371
386.30 1.368
386.40 1.364
386.50 1.359
386.60 1.354
386.70 1.348
386.80 1.341
386.90 1.333
387.00 1.325
387.10 1.316
387.20 1.306
387.30 1.295
387.40 1.284
387.50 1.271
387.60 1.257
387.70 1.242
387.80 1.225
387.90 1.206
388.00 1.186
388.10 1.164
388.20 1.139
388.30 1.114
388.40 1.086
388.50 1.062
388.60 1.039
388.70 1.022
388.80 1.007
388.90 0.9934
389.00 1.005
389.10 1.02
389.20 1.037
389.30 1.059
389.40 1.083
389.50 1.11
389.60 1.136
389.70 1.161
389.80 1.185
389.90 1.206
390.00 1.225
390.10 1.243
390.20 1.26
390.30 1.275
390.40 1.29
390.50 1.304
390.60 1.317
390.70 1.329
390.80 1.34
390.90 1.351
391.00 1.362
391.10 1.372
391.20 1.381
391.30 1.39
391.40 1.399
391.50 1.406
391.60 1.414
391.70 1.42
391.80 1.426
391.90 1.432
392.00 1.437
392.10 1.441
392.20 1.444
392.30 1.447
392.40 1.449
392.50 1.451
392.60 1.451
392.70 1.451
392.80 1.451
392.90 1.449
393.00 1.447
393.10 1.444
393.20 1.44
393.30 1.436
393.40 1.431
393.50 1.425
393.60 1.419
393.70 1.412
393.80 1.404
393.90 1.395
394.00 1.386
394.10 1.376
394.20 1.365
394.30 1.354
394.40 1.341
394.50 1.329
394.60 1.316
394.70 1.302
394.80 1.288
394.90 1.273
395.00 1.258
395.10 1.242
395.20 1.226
395.30 1.209
395.40 1.192
395.50 1.174
395.60 1.156
395.70 1.137
395.80 1.117
395.90 1.097
396.00 1.075
396.10 1.053
396.20 1.029
396.30 1.002
396.40 0.9737
396.50 0.9412
396.60 0.9087
396.70 0.8763
396.80 0.8498
396.90 0.8213
397.00 0.791
397.10 0.8185
397.20 0.8449
397.30 0.8701
397.40 0.9015
397.50 0.9331
397.60 0.9649
397.70 0.993
397.80 1.019
397.90 1.043
398.00 1.065
398.10 1.085
398.20 1.105
398.30 1.124
398.40 1.143
398.50 1.161
398.60 1.178
398.70 1.195
398.80 1.212
398.90 1.228
399.00 1.244
399.10 1.26
399.20 1.275
399.30 1.29
399.40 1.305
399.50 1.319
399.60 1.333
399.70 1.347
399.80 1.36
399.90 1.373
400.00 1.386
400.10 1.398
400.20 1.41
400.30 1.422
400.40 1.432
400.50 1.443
400.60 1.453
400.70 1.463
400.80 1.472
400.90 1.481
401.00 1.49
401.10 1.498
401.20 1.506
401.30 1.513
401.40 1.52
401.50 1.527
401.60 1.533
401.70 1.539
401.80 1.544
401.90 1.549
402.00 1.554
402.10 1.558
402.20 1.562
402.30 1.565
402.40 1.569
402.50 1.571
402.60 1.574
402.70 1.576
402.80 1.578
402.90 1.579
403.00 1.58
403.10 1.58
403.20 1.581
403.30 1.581
403.40 1.58
403.50 1.579
403.60 1.578
403.70 1.577
403.80 1.575
403.90 1.572
404.00 1.57
404.10 1.567
404.20 1.563
404.30 1.56
404.40 1.556
404.50 1.551
404.60 1.546
404.70 1.541
404.80 1.536
404.90 1.53
405.00 1.523
405.10 1.517
405.20 1.509
405.30 1.502
405.40 1.494
405.50 1.486
405.60 1.477
405.70 1.468
405.80 1.459
405.90 1.449
406.00 1.439
406.10 1.429
406.20 1.418
406.30 1.407
406.40 1.395
406.50 1.383
406.60 1.37
406.70 1.358
406.80 1.345
406.90 1.331
407.00 1.317
407.10 1.303
407.20 1.288
407.30 1.273
407.40 1.258
407.50 1.242
407.60 1.226
407.70 1.21
407.80 1.193
407.90 1.176
408.00 1.159
408.10 1.142
408.20 1.125
408.30 1.107
408.40 1.089
408.50 1.071
408.60 1.053
408.70 1.034
408.80 1.015
408.90 0.9964
409.00 0.9773
409.10 0.9578
409.20 0.9379
409.30 0.9176
409.40 0.8953
409.50 0.8713
409.60 0.8457
409.70 0.8162
409.80 0.7856
409.90 0.7538
410.00 0.7202
410.10 0.6899
410.20 0.663
410.30 0.7022
410.40 0.7375
410.50 0.7689
410.60 0.7995
410.70 0.8284
410.80 0.8556
410.90 0.879
411.00 0.9009
411.10 0.9213
411.20 0.9402
411.30 0.9588
411.40 0.977
411.50 0.9948
411.60 1.012
411.70 1.03
411.80 1.047
411.90 1.064
412.00 1.081
412.10 1.097
412.20 1.113
412.30 1.129
412.40 1.145
412.50 1.161
412.60 1.176
412.70 1.191
412.80 1.206
412.90 1.221
413.00 1.235
413.10 1.249
413.20 1.263
413.30 1.276
413.40 1.289
413.50 1.302
413.60 1.314
413.70 1.326
413.80 1.337
413.90 1.349
414.00 1.36
414.10 1.371
414.20 1.381
414.30 1.391
414.40 1.401
414.50 1.411
414.60 1.42
414.70 1.43
414.80 1.438
414.90 1.447
415.00 1.455
415.10 1.463
415.20 1.471
415.30 1.479
415.40 1.486
415.50 1.493
415.60 1.5
415.70 1.506
415.80 1.513
415.90 1.519
416.00 1.525
416.10 1.53
416.20 1.536
416.30 1.541
416.40 1.546
416.50 1.551
416.60 1.556
416.70 1.561
416.80 1.565
416.90 1.569
417.00 1.573
417.10 1.577
417.20 1.581
417.30 1.584
417.40 1.588
417.50 1.591
417.60 1.594
417.70 1.597
417.80 1.6
417.90 1.603
418.00 1.605
418.10 1.607
418.20 1.61
418.30 1.612
418.40 1.614
418.50 1.616
418.60 1.618
418.70 1.619
418.80 1.621
418.90 1.622
419.00 1.624
419.10 1.625
419.20 1.626
419.30 1.627
419.40 1.628
419.50 1.629
419.60 1.63
419.70 1.63
419.80 1.631
419.90 1.631
420.00 1.632
420.10 1.632
420.20 1.632
420.30 1.632
420.40 1.632
420.50 1.632
420.60 1.632
420.70 1.632
420.80 1.632
420.90 1.632
421.00 1.631
421.10 1.631
421.20 1.63
421.30 1.63
421.40 1.629
421.50 1.628
421.60 1.628
421.70 1.627
421.80 1.626
421.90 1.625
422.00 1.624
422.10 1.622
422.20 1.621
422.30 1.62
422.40 1.619
422.50 1.617
422.60 1.616
422.70 1.614
422.80 1.612
422.90 1.611
423.00 1.609
423.10 1.607
423.20 1.605
423.30 1.603
423.40 1.601
423.50 1.599
423.60 1.597
423.70 1.594
423.80 1.592
423.90 1.59
424.00 1.587
424.10 1.584
424.20 1.582
424.30 1.579
424.40 1.576
424.50 1.573
424.60 1.57
424.70 1.567
424.80 1.564
424.90 1.561
425.00 1.558
425.10 1.554
425.20 1.551
425.30 1.547
425.40 1.543
425.50 1.54
425.60 1.536
425.70 1.532
425.80 1.528
425.90 1.524
426.00 1.519
426.10 1.515
426.20 1.509
426.30 1.504
426.40 1.5
426.50 1.495
426.60 1.49
426.70 1.485
426.80 1.479
426.90 1.474
427.00 1.468
427.10 1.463
427.20 1.457
427.30 1.451
427.40 1.445
427.50 1.439
427.60 1.433
427.70 1.426
427.80 1.42
427.90 1.413
428.00 1.406
428.10 1.399
428.20 1.392
428.30 1.384
428.40 1.377
428.50 1.369
428.60 1.361
428.70 1.353
428.80 1.345
428.90 1.336
429.00 1.328
429.10 1.319
429.20 1.31
429.30 1.301
429.40 1.291
429.50 1.282
429.60 1.272
429.70 1.262
429.80 1.252
429.90 1.241
430.00 1.231
430.10 1.22
430.20 1.209
430.30 1.198
430.40 1.186
430.50 1.175
430.60 1.163
430.70 1.151
430.80 1.139
430.90 1.127
431.00 1.114
431.10 1.101
431.20 1.088
431.30 1.075
431.40 1.062
431.50 1.049
431.60 1.035
431.70 1.021
431.80 1.007
431.90 0.993
432.00 0.9785
432.10 0.9639
432.20 0.9488
432.30 0.9334
432.40 0.9177
432.50 0.9012
432.60 0.8844
432.70 0.8672
432.80 0.8497
432.90 0.8323
433.00 0.8149
433.10 0.7983
433.20 0.7815
433.30 0.7646
433.40 0.7459
433.50 0.7257
433.60 0.7039
433.70 0.6768
433.80 0.6463
433.90 0.6126
434.00 0.5537
434.10 0.5545
434.20 0.6151
434.30 0.6477
434.40 0.677
434.50 0.7032
434.60 0.724
434.70 0.7433
434.80 0.761
434.90 0.777
435.00 0.7929
435.10 0.8087
435.20 0.8251
435.30 0.8415
435.40 0.8579
435.50 0.874
435.60 0.8896
435.70 0.9048
435.80 0.9192
435.90 0.9333
436.00 0.9471
436.10 0.9605
436.20 0.9736
436.30 0.9865
436.40 0.999
436.50 1.011
436.60 1.023
436.70 1.035
436.80 1.047
436.90 1.058
437.00 1.07
437.10 1.081
437.20 1.092
437.30 1.102
437.40 1.113
437.50 1.123
437.60 1.133
437.70 1.142
437.80 1.152
437.90 1.161
438.00 1.17
438.10 1.179
438.20 1.188
438.30 1.196
438.40 1.205
438.50 1.213
438.60 1.221
438.70 1.228
438.80 1.236
438.90 1.243
439.00 1.25
439.10 1.257
439.20 1.263
439.30 1.27
439.40 1.276
439.50 1.282
439.60 1.288
439.70 1.294
439.80 1.299
439.90 1.304
440.00 1.31
440.10 1.315
440.20 1.32
440.30 1.324
440.40 1.329
440.50 1.333
440.60 1.337
440.70 1.342
440.80 1.346
440.90 1.35
441.00 1.353
441.10 1.357
441.20 1.36
441.30 1.364
441.40 1.367
441.50 1.37
441.60 1.373
441.70 1.376
441.80 1.379
441.90 1.382
442.00 1.384
442.10 1.387
442.20 1.389
442.30 1.392
442.40 1.394
442.50 1.396
442.60 1.398
442.70 1.4
442.80 1.402
442.90 1.403
443.00 1.405
443.10 1.407
443.20 1.408
443.30 1.41
443.40 1.411
443.50 1.413
443.60 1.414
443.70 1.415
443.80 1.417
443.90 1.418
444.00 1.419
444.10 1.42
444.20 1.421
444.30 1.422
444.40 1.423
444.50 1.423
444.60 1.424
444.70 1.425
444.80 1.426
444.90 1.426
445.00 1.427
445.10 1.427
445.20 1.428
445.30 1.428
445.40 1.429
445.50 1.429
445.60 1.43
445.70 1.43
445.80 1.43
445.90 1.43
446.00 1.431
446.10 1.431
446.20 1.431
446.30 1.431
446.40 1.431
446.50 1.431
446.60 1.431
446.70 1.432
446.80 1.432
446.90 1.432
447.00 1.431
447.10 1.431
447.20 1.431
447.30 1.431
447.40 1.431
447.50 1.431
447.60 1.431
447.70 1.43
447.80 1.43
447.90 1.43
448.00 1.43
448.10 1.43
448.20 1.429
448.30 1.429
448.40 1.429
448.50 1.428
448.60 1.428
448.70 1.427
448.80 1.427
448.90 1.427
449.00 1.427
449.10 1.426
449.20 1.426
449.30 1.425
449.40 1.425
449.50 1.424
449.60 1.424
449.70 1.423
449.80 1.423
449.90 1.422
450.00 1.422
450.10 1.421
450.20 1.421
450.30 1.42
450.40 1.419
450.50 1.419
450.60 1.418
450.70 1.418
450.80 1.417
450.90 1.416
451.00 1.416
451.10 1.415
451.20 1.414
451.30 1.414
451.40 1.413
451.50 1.412
451.60 1.412
451.70 1.411
451.80 1.41
451.90 1.41
452.00 1.409
452.10 1.408
452.20 1.407
452.30 1.407
452.40 1.406
452.50 1.405
452.60 1.404
452.70 1.404
452.80 1.403
452.90 1.402
453.00 1.401
453.10 1.401
453.20 1.4
453.30 1.399
453.40 1.398
453.50 1.398
453.60 1.397
453.70 1.396
453.80 1.395
453.90 1.394
454.00 1.393
454.10 1.393
454.20 1.392
454.30 1.391
454.40 1.39
454.50 1.389
454.60 1.388
454.70 1.388
454.80 1.387
454.90 1.386
455.00 1.385
455.10 1.384
455.20 1.383
455.30 1.382
455.40 1.382
455.50 1.381
455.60 1.38
455.70 1.379
455.80 1.378
455.90 1.377
456.00 1.376
456.10 1.375
456.20 1.375
456.30 1.374
456.40 1.373
456.50 1.372
456.60 1.371
456.70 1.37
456.80 1.369
456.90 1.368
457.00 1.368
457.10 1.367
457.20 1.366
457.30 1.365
457.40 1.364
457.50 1.363
457.60 1.362
457.70 1.361
457.80 1.36
457.90 1.359
458.00 1.358
458.10 1.357
458.20 1.357
458.30 1.356
458.40 1.355
458.50 1.354
458.60 1.353
458.70 1.352
458.80 1.351
458.90 1.35
459.00 1.349
459.10 1.348
459.20 1.347
459.30 1.346
459.40 1.345
459.50 1.344
459.60 1.343
459.70 1.342
459.80 1.341
459.90 1.34
460.00 1.339
460.10 1.338
460.20 1.337
460.30 1.336
460.40 1.335
460.50 1.334
460.60 1.333
460.70 1.332
460.80 1.331
460.90 1.33
461.00 1.329
461.10 1.328
461.20 1.327
461.30 1.326
461.40 1.325
461.50 1.324
461.60 1.323
461.70 1.322
461.80 1.321
461.90 1.32
462.00 1.319
462.10 1.318
462.20 1.317
462.30 1.316
462.40 1.315
462.50 1.314
462.60 1.313
462.70 1.312
462.80 1.311
462.90 1.31
463.00 1.309
463.10 1.308
463.20 1.307
463.30 1.306
463.40 1.304
463.50 1.303
463.60 1.302
463.70 1.301
463.80 1.3
463.90 1.299
464.00 1.298
464.10 1.297
464.20 1.296
464.30 1.295
464.40 1.294
464.50 1.293
464.60 1.292
464.70 1.29
464.80 1.289
464.90 1.288
465.00 1.287
465.10 1.286
465.20 1.285
465.30 1.284
465.40 1.283
465.50 1.282
465.60 1.28
465.70 1.279
465.80 1.278
465.90 1.277
466.00 1.276
466.10 1.275
466.20 1.274
466.30 1.273
466.40 1.271
466.50 1.27
466.60 1.269
466.70 1.268
466.80 1.267
466.90 1.266
467.00 1.264
467.10 1.263
467.20 1.262
467.30 1.261
467.40 1.26
467.50 1.258
467.60 1.257
467.70 1.256
467.80 1.255
467.90 1.253
468.00 1.252
468.10 1.251
468.20 1.25
468.30 1.249
468.40 1.247
468.50 1.246
468.60 1.245
468.70 1.243
468.80 1.242
468.90 1.241
469.00 1.24
469.10 1.238
469.20 1.237
469.30 1.236
469.40 1.234
469.50 1.233
469.60 1.232
469.70 1.23
469.80 1.229
469.90 1.228
470.00 1.226
470.10 1.225
470.20 1.224
470.30 1.222
470.40 1.221
470.50 1.219
470.60 1.218
470.70 1.217
470.80 1.215
470.90 1.214
471.00 1.212
471.10 1.211
471.20 1.21
471.30 1.208
471.40 1.207
471.50 1.205
471.60 1.203
471.70 1.202
471.80 1.2
471.90 1.199
472.00 1.197
472.10 1.196
472.20 1.194
472.30 1.192
472.40 1.191
472.50 1.189
472.60 1.187
472.70 1.186
472.80 1.184
472.90 1.182
473.00 1.181
473.10 1.179
473.20 1.177
473.30 1.175
473.40 1.173
473.50 1.172
473.60 1.17
473.70 1.168
473.80 1.166
473.90 1.164
474.00 1.162
474.10 1.161
474.20 1.158
474.30 1.156
474.40 1.154
474.50 1.152
474.60 1.15
474.70 1.148
474.80 1.146
474.90 1.144
475.00 1.142
475.10 1.14
475.20 1.137
475.30 1.135
475.40 1.133
475.50 1.13
475.60 1.128
475.70 1.126
475.80 1.123
475.90 1.121
476.00 1.118
476.10 1.116
476.20 1.114
476.30 1.111
476.40 1.108
476.50 1.105
476.60 1.103
476.70 1.1
476.80 1.097
476.90 1.094
477.00 1.092
477.10 1.089
477.20 1.086
477.30 1.083
477.40 1.08
477.50 1.077
477.60 1.073
477.70 1.07
477.80 1.067
477.90 1.064
478.00 1.061
478.10 1.058
478.20 1.054
478.30 1.05
478.40 1.047
478.50 1.043
478.60 1.039
478.70 1.035
478.80 1.032
478.90 1.028
479.00 1.024
479.10 1.02
479.20 1.016
479.30 1.012
479.40 1.007
479.50 1.003
479.60 0.9987
479.70 0.9943
479.80 0.9899
479.90 0.9856
480.00 0.9812
480.10 0.9768
480.20 0.9719
480.30 0.9667
480.40 0.9615
480.50 0.9563
480.60 0.9512
480.70 0.946
480.80 0.9408
480.90 0.9357
481.00 0.9305
481.10 0.9254
481.20 0.9195
481.30 0.9134
481.40 0.9072
481.50 0.9011
481.60 0.895
481.70 0.8888
481.80 0.8827
481.90 0.8766
482.00 0.8705
482.10 0.8644
482.20 0.8575
482.30 0.8503
482.40 0.8431
482.50 0.8359
482.60 0.8287
482.70 0.8215
482.80 0.8143
482.90 0.8071
483.00 0.7999
483.10 0.7928
483.20 0.7846
483.30 0.7761
483.40 0.7675
483.50 0.759
483.60 0.7504
483.70 0.7419
483.80 0.7334
483.90 0.7249
484.00 0.7163
484.10 0.7078
484.20 0.6985
484.30 0.6889
484.40 0.6792
484.50 0.6696
484.60 0.6599
484.70 0.6497
484.80 0.6393
484.90 0.6289
485.00 0.6186
485.10 0.6082
485.20 0.5976
485.30 0.5869
485.40 0.5757
485.50 0.5642
485.60 0.5516
485.70 0.5384
485.80 0.5209
485.90 0.5016
486.00 0.473
486.10 0.4037
486.20 0.434
486.30 0.4846
486.40 0.5068
486.50 0.5259
486.60 0.5407
486.70 0.5534
486.80 0.5649
486.90 0.5757
487.00 0.5861
487.10 0.5961
487.20 0.6059
487.30 0.6156
487.40 0.6253
487.50 0.6349
487.60 0.6446
487.70 0.6537
487.80 0.6625
487.90 0.6714
488.00 0.6802
488.10 0.689
488.20 0.697
488.30 0.7045
488.40 0.7121
488.50 0.7196
488.60 0.7272
488.70 0.7347
488.80 0.7422
488.90 0.7498
489.00 0.7573
489.10 0.7648
489.20 0.7713
489.30 0.7773
489.40 0.7834
489.50 0.7894
489.60 0.7954
489.70 0.8014
489.80 0.8074
489.90 0.8134
490.00 0.8194
490.10 0.8254
490.20 0.8306
490.30 0.8354
490.40 0.8402
490.50 0.845
490.60 0.8498
490.70 0.8546
490.80 0.8593
490.90 0.8641
491.00 0.8689
491.10 0.8737
491.20 0.8777
491.30 0.8814
491.40 0.8851
491.50 0.8888
491.60 0.8925
491.70 0.8963
491.80 0.8999
491.90 0.9036
492.00 0.9073
492.10 0.911
492.20 0.9141
492.30 0.917
492.40 0.9198
492.50 0.9226
492.60 0.9255
492.70 0.9283
492.80 0.9311
492.90 0.934
493.00 0.9368
493.10 0.9396
493.20 0.942
493.30 0.9441
493.40 0.9462
493.50 0.9484
493.60 0.9505
493.70 0.9526
493.80 0.9547
493.90 0.9568
494.00 0.959
494.10 0.9611
494.20 0.9628
494.30 0.9643
494.40 0.9658
494.50 0.9673
494.60 0.9688
494.70 0.9703
494.80 0.9718
494.90 0.9734
495.00 0.9749
495.10 0.9764
495.20 0.9776
495.30 0.9786
495.40 0.9797
495.50 0.9807
495.60 0.9817
495.70 0.9828
495.80 0.9838
495.90 0.9849
496.00 0.9859
496.10 0.987
496.20 0.9877
496.30 0.9884
496.40 0.9891
496.50 0.9898
496.60 0.9905
496.70 0.9911
496.80 0.9918
496.90 0.9925
497.00 0.9932
497.10 0.9939
497.20 0.9943
497.30 0.9947
497.40 0.9951
497.50 0.9955
497.60 0.9959
497.70 0.9963
497.80 0.9967
497.90 0.9971
498.00 0.9975
498.10 0.9979
498.20 0.9982
498.30 0.9984
498.40 0.9985
498.50 0.9987
498.60 0.9989
498.70 0.9991
498.80 0.9993
498.90 0.9995
499.00 0.9997
499.10 0.9998
499.20 0.9999
499.30 0.9999
499.40 0.9999
499.50 0.9999
499.60 1
499.70 1
499.80 1
499.90 1
500.00 1
500.10 1
500.20 0.9999
500.30 0.9998
500.40 0.9997
500.50 0.9996
500.60 0.9995
500.70 0.9994
500.80 0.9992
500.90 0.9991
501.00 0.999
501.10 0.9989
501.20 0.9987
501.30 0.9985
501.40 0.9983
501.50 0.9981
501.60 0.9979
501.70 0.9977
501.80 0.9974
501.90 0.9972
502.00 0.997
502.10 0.9968
502.20 0.9965
502.30 0.9963
502.40 0.996
502.50 0.9957
502.60 0.9954
502.70 0.9951
502.80 0.9948
502.90 0.9945
503.00 0.9943
503.10 0.994
503.20 0.9936
503.30 0.9933
503.40 0.9929
503.50 0.9926
503.60 0.9922
503.70 0.9919
503.80 0.9915
503.90 0.9912
504.00 0.9908
504.10 0.9905
504.20 0.9901
504.30 0.9897
504.40 0.9893
504.50 0.9889
504.60 0.9885
504.70 0.9881
504.80 0.9877
504.90 0.9873
505.00 0.9869
505.10 0.9865
505.20 0.9861
505.30 0.9856
505.40 0.9852
505.50 0.9848
505.60 0.9843
505.70 0.9839
505.80 0.9835
505.90 0.9831
506.00 0.9826
506.10 0.9822
506.20 0.9817
506.30 0.9813
506.40 0.9808
506.50 0.9803
506.60 0.9798
506.70 0.9794
506.80 0.9789
506.90 0.9784
507.00 0.978
507.10 0.9775
507.20 0.977
507.30 0.9765
507.40 0.9761
507.50 0.9756
507.60 0.9751
507.70 0.9746
507.80 0.9741
507.90 0.9736
508.00 0.9731
508.10 0.9727
508.20 0.9722
508.30 0.9717
508.40 0.9712
508.50 0.9706
508.60 0.9701
508.70 0.9696
508.80 0.9691
508.90 0.9686
509.00 0.9681
509.10 0.9676
509.20 0.9671
509.30 0.9666
509.40 0.966
509.50 0.9655
509.60 0.965
509.70 0.9645
509.80 0.9639
509.90 0.9634
510.00 0.9629
510.10 0.9624
510.20 0.9618
510.30 0.9613
510.40 0.9608
510.50 0.9602
510.60 0.9597
510.70 0.9592
510.80 0.9586
510.90 0.9581
511.00 0.9576
511.10 0.957
511.20 0.9565
511.30 0.956
511.40 0.9554
511.50 0.9549
511.60 0.9543
511.70 0.9538
511.80 0.9533
511.90 0.9527
512.00 0.9522
512.10 0.9517
512.20 0.9511
512.30 0.9506
512.40 0.95
512.50 0.9495
512.60 0.9489
512.70 0.9484
512.80 0.9478
512.90 0.9473
513.00 0.9467
513.10 0.9462
513.20 0.9456
513.30 0.9451
513.40 0.9445
513.50 0.944
513.60 0.9434
513.70 0.9429
513.80 0.9423
513.90 0.9418
514.00 0.9413
514.10 0.9407
514.20 0.9402
514.30 0.9396
514.40 0.9391
514.50 0.9385
514.60 0.938
514.70 0.9374
514.80 0.9369
514.90 0.9363
515.00 0.9358
515.10 0.9352
515.20 0.9347
515.30 0.9341
515.40 0.9335
515.50 0.933
515.60 0.9324
515.70 0.9319
515.80 0.9313
515.90 0.9308
516.00 0.9302
516.10 0.9297
516.20 0.9291
516.30 0.9285
516.40 0.928
516.50 0.9274
516.60 0.9269
516.70 0.9263
516.80 0.9257
516.90 0.9252
517.00 0.9246
517.10 0.9241
517.20 0.9235
517.30 0.9229
517.40 0.9224
517.50 0.9218
517.60 0.9213
517.70 0.9207
517.80 0.9202
517.90 0.9196
518.00 0.9191
518.10 0.9185
518.20 0.9179
518.30 0.9174
518.40 0.9168
518.50 0.9163
518.60 0.9157
518.70 0.9152
518.80 0.9146
518.90 0.9141
519.00 0.9135
519.10 0.913
519.20 0.9124
519.30 0.9119
519.40 0.9113
519.50 0.9107
519.60 0.9102
519.70 0.9096
519.80 0.9091
519.90 0.9085
520.00 0.908
520.10 0.9074
520.20 0.9069
520.30 0.9063
520.40 0.9057
520.50 0.9052
520.60 0.9046
520.70 0.9041
520.80 0.9035
520.90 0.903
521.00 0.9024
521.10 0.9019
521.20 0.9013
521.30 0.9008
521.40 0.9002
521.50 0.8997
521.60 0.8991
521.70 0.8986
521.80 0.898
521.90 0.8975
522.00 0.8969
522.10 0.8964
522.20 0.8958
522.30 0.8953
522.40 0.8947
522.50 0.8942
522.60 0.8936
522.70 0.8931
522.80 0.8925
522.90 0.8919
523.00 0.8914
523.10 0.8908
523.20 0.8903
523.30 0.8898
523.40 0.8892
523.50 0.8887
523.60 0.8881
523.70 0.8876
523.80 0.887
523.90 0.8865
524.00 0.886
524.10 0.8854
524.20 0.8849
524.30 0.8843
524.40 0.8838
524.50 0.8832
524.60 0.8827
524.70 0.8821
524.80 0.8816
524.90 0.881
525.00 0.8805
525.10 0.8799
525.20 0.8794
525.30 0.8789
525.40 0.8783
525.50 0.8778
525.60 0.8772
525.70 0.8767
525.80 0.8761
525.90 0.8756
526.00 0.8751
526.10 0.8745
526.20 0.874
526.30 0.8734
526.40 0.8729
526.50 0.8724
526.60 0.8718
526.70 0.8713
526.80 0.8707
526.90 0.8702
527.00 0.8697
527.10 0.8691
527.20 0.8686
527.30 0.868
527.40 0.8675
527.50 0.867
527.60 0.8664
527.70 0.8659
527.80 0.8654
527.90 0.8648
528.00 0.8643
528.10 0.8638
528.20 0.8632
528.30 0.8627
528.40 0.8622
528.50 0.8616
528.60 0.8611
528.70 0.8606
528.80 0.86
528.90 0.8595
529.00 0.859
529.10 0.8584
529.20 0.8579
529.30 0.8574
529.40 0.8568
529.50 0.8563
529.60 0.8558
529.70 0.8552
529.80 0.8547
529.90 0.8542
530.00 0.8537
530.10 0.8531
530.20 0.8526
530.30 0.8521
530.40 0.8515
530.50 0.851
530.60 0.8505
530.70 0.85
530.80 0.8494
530.90 0.8489
531.00 0.8484
531.10 0.8479
531.20 0.8473
531.30 0.8468
531.40 0.8463
531.50 0.8458
531.60 0.8452
531.70 0.8447
531.80 0.8442
531.90 0.8437
532.00 0.8432
532.10 0.8426
532.20 0.8421
532.30 0.8416
532.40 0.8411
532.50 0.8406
532.60 0.84
532.70 0.8395
532.80 0.839
532.90 0.8385
533.00 0.838
533.10 0.8374
533.20 0.8369
533.30 0.8364
533.40 0.8359
533.50 0.8354
533.60 0.8349
533.70 0.8343
533.80 0.8338
533.90 0.8333
534.00 0.8328
534.10 0.8323
534.20 0.8318
534.30 0.8313
534.40 0.8307
534.50 0.8302
534.60 0.8297
534.70 0.8292
534.80 0.8287
534.90 0.8282
535.00 0.8277
535.10 0.8271
535.20 0.8266
535.30 0.8261
535.40 0.8256
535.50 0.8251
535.60 0.8246
535.70 0.8241
535.80 0.8236
535.90 0.8231
536.00 0.8226
536.10 0.8221
536.20 0.8215
536.30 0.821
536.40 0.8205
536.50 0.82
536.60 0.8195
536.70 0.819
536.80 0.8185
536.90 0.818
537.00 0.8175
537.10 0.817
537.20 0.8165
537.30 0.816
537.40 0.8155
537.50 0.815
537.60 0.8145
537.70 0.814
537.80 0.8135
537.90 0.813
538.00 0.8125
538.10 0.812
538.20 0.8115
538.30 0.811
538.40 0.8104
538.50 0.8099
538.60 0.8094
538.70 0.8089
538.80 0.8084
538.90 0.8079
539.00 0.8075
539.10 0.807
539.20 0.8065
539.30 0.806
539.40 0.8055
539.50 0.805
539.60 0.8045
539.70 0.804
539.80 0.8035
539.90 0.803
540.00 0.8025
540.10 0.802
540.20 0.8015
540.30 0.801
540.40 0.8005
540.50 0.8
540.60 0.7995
540.70 0.799
540.80 0.7985
540.90 0.798
541.00 0.7975
541.10 0.797
541.20 0.7966
541.30 0.7961
541.40 0.7956
541.50 0.7951
541.60 0.7946
541.70 0.7941
541.80 0.7937
541.90 0.7932
542.00 0.7927
542.10 0.7922
542.20 0.7917
542.30 0.7912
542.40 0.7907
542.50 0.7903
542.60 0.7898
542.70 0.7893
542.80 0.7888
542.90 0.7883
543.00 0.7878
543.10 0.7873
543.20 0.7868
543.30 0.7864
543.40 0.7859
543.50 0.7854
543.60 0.7849
543.70 0.7844
543.80 0.7839
543.90 0.7835
544.00 0.783
544.10 0.7825
544.20 0.782
544.30 0.7815
544.40 0.7811
544.50 0.7806
544.60 0.7801
544.70 0.7796
544.80 0.7792
544.90 0.7787
545.00 0.7782
545.10 0.7777
545.20 0.7773
545.30 0.7768
545.40 0.7763
545.50 0.7758
545.60 0.7754
545.70 0.7749
545.80 0.7744
545.90 0.774
546.00 0.7735
546.10 0.773
546.20 0.7726
546.30 0.7722
546.40 0.7717
546.50 0.7713
546.60 0.7709
546.70 0.7705
546.80 0.7701
546.90 0.7697
547.00 0.7692
547.10 0.7688
547.20 0.7684
547.30 0.7679
547.40 0.7674
547.50 0.7669
547.60 0.7665
547.70 0.766
547.80 0.7655
547.90 0.7651
548.00 0.7646
548.10 0.7641
548.20 0.7636
548.30 0.7632
548.40 0.7627
548.50 0.7622
548.60 0.7618
548.70 0.7613
548.80 0.7608
548.90 0.7603
549.00 0.7599
549.10 0.7594
549.20 0.7589
549.30 0.7585
549.40 0.758
549.50 0.7576
549.60 0.7571
549.70 0.7566
549.80 0.7562
549.90 0.7557
550.00 0.7553
550.10 0.7548
550.20 0.7543
550.30 0.7539
550.40 0.7534
550.50 0.753
550.60 0.7525
550.70 0.7521
550.80 0.7516
550.90 0.7511
551.00 0.7507
551.10 0.7502
551.20 0.7498
551.30 0.7493
551.40 0.7488
551.50 0.7484
551.60 0.7479
551.70 0.7475
551.80 0.747
551.90 0.7465
552.00 0.7461
552.10 0.7456
552.20 0.7452
552.30 0.7447
552.40 0.7443
552.50 0.7438
552.60 0.7434
552.70 0.7429
552.80 0.7425
552.90 0.742
553.00 0.7416
553.10 0.7411
553.20 0.7407
553.30 0.7402
553.40 0.7398
553.50 0.7393
553.60 0.7389
553.70 0.7384
553.80 0.738
553.90 0.7375
554.00 0.7371
554.10 0.7366
554.20 0.7362
554.30 0.7357
554.40 0.7353
554.50 0.7348
554.60 0.7344
554.70 0.7339
554.80 0.7335
554.90 0.733
555.00 0.7326
555.10 0.7322
555.20 0.7317
555.30 0.7313
555.40 0.7308
555.50 0.7304
555.60 0.7299
555.70 0.7295
555.80 0.729
555.90 0.7286
556.00 0.7282
556.10 0.7277
556.20 0.7273
556.30 0.7268
556.40 0.7264
556.50 0.726
556.60 0.7255
556.70 0.7251
556.80 0.7247
556.90 0.7242
557.00 0.7238
557.10 0.7234
557.20 0.7229
557.30 0.7225
557.40 0.7221
557.50 0.7216
557.60 0.7212
557.70 0.7208
557.80 0.7203
557.90 0.7199
558.00 0.7194
558.10 0.719
558.20 0.7186
558.30 0.7181
558.40 0.7177
558.50 0.7173
558.60 0.7168
558.70 0.7164
558.80 0.716
558.90 0.7155
559.00 0.7151
559.10 0.7147
559.20 0.7142
559.30 0.7138
559.40 0.7134
559.50 0.7129
559.60 0.7125
559.70 0.7121
559.80 0.7117
559.90 0.7112
560.00 0.7108
560.10 0.7104
560.20 0.71
560.30 0.7095
560.40 0.7091
560.50 0.7087
560.60 0.7082
560.70 0.7078
560.80 0.7074
560.90 0.707
561.00 0.7065
561.10 0.7061
561.20 0.7057
561.30 0.7052
561.40 0.7048
561.50 0.7044
561.60 0.704
561.70 0.7036
561.80 0.7031
561.90 0.7027
562.00 0.7023
562.10 0.7019
562.20 0.7015
562.30 0.701
562.40 0.7006
562.50 0.7002
562.60 0.6998
562.70 0.6994
562.80 0.699
562.90 0.6985
563.00 0.6981
563.10 0.6977
563.20 0.6973
563.30 0.6969
563.40 0.6965
563.50 0.696
563.60 0.6956
563.70 0.6952
563.80 0.6948
563.90 0.6944
564.00 0.694
564.10 0.6935
564.20 0.6931
564.30 0.6927
564.40 0.6923
564.50 0.6919
564.60 0.6915
564.70 0.6911
564.80 0.6907
564.90 0.6902
565.00 0.6898
565.10 0.6894
565.20 0.689
565.30 0.6886
565.40 0.6882
565.50 0.6878
565.60 0.6874
565.70 0.6869
565.80 0.6865
565.90 0.6861
566.00 0.6857
566.10 0.6853
566.20 0.6849
566.30 0.6845
566.40 0.6841
566.50 0.6837
566.60 0.6833
566.70 0.6829
566.80 0.6824
566.90 0.682
567.00 0.6816
567.10 0.6812
567.20 0.6808
567.30 0.6804
567.40 0.68
567.50 0.6796
567.60 0.6792
567.70 0.6788
567.80 0.6784
567.90 0.678
568.00 0.6776
568.10 0.6772
568.20 0.6768
568.30 0.6764
568.40 0.676
568.50 0.6756
568.60 0.6752
568.70 0.6748
568.80 0.6744
568.90 0.674
569.00 0.6736
569.10 0.6732
569.20 0.6728
569.30 0.6724
569.40 0.672
569.50 0.6716
569.60 0.6712
569.70 0.6708
569.80 0.6704
569.90 0.67
570.00 0.6696
570.10 0.6692
570.20 0.6688
570.30 0.6684
570.40 0.668
570.50 0.6676
570.60 0.6672
570.70 0.6668
570.80 0.6664
570.90 0.6661
571.00 0.6657
571.10 0.6653
571.20 0.6649
571.30 0.6645
571.40 0.6641
571.50 0.6637
571.60 0.6633
571.70 0.6629
571.80 0.6625
571.90 0.6621
572.00 0.6617
572.10 0.6613
572.20 0.6609
572.30 0.6605
572.40 0.6601
572.50 0.6598
572.60 0.6594
572.70 0.659
572.80 0.6586
572.90 0.6582
573.00 0.6578
573.10 0.6574
573.20 0.6571
573.30 0.6567
573.40 0.6563
573.50 0.6559
573.60 0.6555
573.70 0.6551
573.80 0.6547
573.90 0.6544
574.00 0.654
574.10 0.6536
574.20 0.6532
574.30 0.6528
574.40 0.6524
574.50 0.6521
574.60 0.6517
574.70 0.6513
574.80 0.6509
574.90 0.6505
575.00 0.6501
575.10 0.6498
575.20 0.6494
575.30 0.649
575.40 0.6486
575.50 0.6482
575.60 0.6478
575.70 0.6475
575.80 0.6471
575.90 0.6467
576.00 0.6463
576.10 0.6459
576.20 0.6456
576.30 0.6452
576.40 0.6448
576.50 0.6444
576.60 0.644
576.70 0.6437
576.80 0.6433
576.90 0.6429
577.00 0.6425
577.10 0.6422
577.20 0.6418
577.30 0.6414
577.40 0.641
577.50 0.6406
577.60 0.6403
577.70 0.6399
577.80 0.6395
577.90 0.6391
578.00 0.6388
578.10 0.6384
578.20 0.638
578.30 0.6377
578.40 0.6373
578.50 0.6369
578.60 0.6365
578.70 0.6362
578.80 0.6358
578.90 0.6354
579.00 0.6351
579.10 0.6347
579.20 0.6343
579.30 0.6339
579.40 0.6336
579.50 0.6332
579.60 0.6328
579.70 0.6325
579.80 0.6321
579.90 0.6317
580.00 0.6314
580.10 0.631
580.20 0.6306
580.30 0.6302
580.40 0.6299
580.50 0.6295
580.60 0.6291
580.70 0.6288
580.80 0.6284
580.90 0.628
581.00 0.6277
581.10 0.6273
581.20 0.6269
581.30 0.6266
581.40 0.6262
581.50 0.6259
581.60 0.6255
581.70 0.6251
581.80 0.6248
581.90 0.6244
582.00 0.624
582.10 0.6237
582.20 0.6233
582.30 0.6229
582.40 0.6226
582.50 0.6222
582.60 0.6219
582.70 0.6215
582.80 0.6211
582.90 0.6208
583.00 0.6204
583.10 0.6201
583.20 0.6197
583.30 0.6193
583.40 0.619
583.50 0.6186
583.60 0.6183
583.70 0.6179
583.80 0.6175
583.90 0.6172
584.00 0.6168
584.10 0.6165
584.20 0.6161
584.30 0.6157
584.40 0.6154
584.50 0.615
584.60 0.6147
584.70 0.6143
584.80 0.614
584.90 0.6136
585.00 0.6133
585.10 0.6129
585.20 0.6125
585.30 0.6122
585.40 0.6118
585.50 0.6115
585.60 0.6111
585.70 0.6108
585.80 0.6104
585.90 0.6101
586.00 0.6097
586.10 0.6094
586.20 0.609
586.30 0.6087
586.40 0.6083
586.50 0.608
586.60 0.6076
586.70 0.6073
586.80 0.6069
586.90 0.6066
587.00 0.6062
587.10 0.6059
587.20 0.6055
587.30 0.6052
587.40 0.6048
587.50 0.6045
587.60 0.6041
587.70 0.6038
587.80 0.6034
587.90 0.6031
588.00 0.6027
588.10 0.6024
588.20 0.602
588.30 0.6017
588.40 0.6013
588.50 0.601
588.60 0.6006
588.70 0.6003
588.80 0.5999
588.90 0.5996
589.00 0.5993
589.10 0.5989
589.20 0.5986
589.30 0.5982
589.40 0.5979
589.50 0.5975
589.60 0.5972
589.70 0.5968
589.80 0.5965
589.90 0.5962
590.00 0.5958
590.10 0.5955
590.20 0.5951
590.30 0.5948
590.40 0.5944
590.50 0.5941
590.60 0.5938
590.70 0.5934
590.80 0.5931
590.90 0.5927
591.00 0.5924
591.10 0.5921
591.20 0.5917
591.30 0.5914
591.40 0.591
591.50 0.5907
591.60 0.5904
591.70 0.59
591.80 0.5897
591.90 0.5893
592.00 0.589
592.10 0.5887
592.20 0.5883
592.30 0.588
592.40 0.5877
592.50 0.5873
592.60 0.587
592.70 0.5867
592.80 0.5863
592.90 0.586
593.00 0.5856
593.10 0.5853
593.20 0.585
593.30 0.5846
593.40 0.5843
593.50 0.584
593.60 0.5836
593.70 0.5833
593.80 0.583
593.90 0.5826
594.00 0.5823
594.10 0.582
594.20 0.5816
594.30 0.5813
594.40 0.581
594.50 0.5806
594.60 0.5803
594.70 0.58
594.80 0.5796
594.90 0.5793
595.00 0.579
595.10 0.5787
595.20 0.5783
595.30 0.578
595.40 0.5777
595.50 0.5773
595.60 0.577
595.70 0.5767
595.80 0.5764
595.90 0.576
596.00 0.5757
596.10 0.5754
596.20 0.575
596.30 0.5745
596.40 0.5741
596.50 0.5737
596.60 0.5733
596.70 0.5728
596.80 0.5724
596.90 0.572
597.00 0.5716
597.10 0.5711
597.20 0.5708
597.30 0.5704
597.40 0.5701
597.50 0.5698
597.60 0.5695
597.70 0.5691
597.80 0.5688
597.90 0.5685
598.00 0.5682
598.10 0.5678
598.20 0.5675
598.30 0.5672
598.40 0.5669
598.50 0.5665
598.60 0.5662
598.70 0.5659
598.80 0.5656
598.90 0.5652
599.00 0.5649
599.10 0.5646
599.20 0.5643
599.30 0.5639
599.40 0.5636
599.50 0.5633
599.60 0.563
599.70 0.5626
599.80 0.5623
599.90 0.562
600.00 0.5617
600.10 0.5614
600.20 0.561
600.30 0.5607
600.40 0.5604
600.50 0.5601
600.60 0.5597
600.70 0.5594
600.80 0.5591
600.90 0.5588
601.00 0.5585
601.10 0.5581
601.20 0.5578
601.30 0.5575
601.40 0.5572
601.50 0.5569
601.60 0.5565
601.70 0.5562
601.80 0.5559
601.90 0.5556
602.00 0.5553
602.10 0.555
602.20 0.5546
602.30 0.5543
602.40 0.554
602.50 0.5537
602.60 0.5534
602.70 0.5531
602.80 0.5527
602.90 0.5524
603.00 0.5521
603.10 0.5518
603.20 0.5515
603.30 0.5512
603.40 0.5508
603.50 0.5505
603.60 0.5502
603.70 0.5499
603.80 0.5496
603.90 0.5493
604.00 0.549
604.10 0.5486
604.20 0.5483
604.30 0.548
604.40 0.5477
604.50 0.5474
604.60 0.5471
604.70 0.5468
604.80 0.5465
604.90 0.5461
605.00 0.5458
605.10 0.5455
605.20 0.5452
605.30 0.5449
605.40 0.5446
605.50 0.5443
605.60 0.544
605.70 0.5436
605.80 0.5433
605.90 0.543
606.00 0.5427
606.10 0.5424
606.20 0.5421
606.30 0.5418
606.40 0.5415
606.50 0.5412
606.60 0.5409
606.70 0.5405
606.80 0.5402
606.90 0.5399
607.00 0.5396
607.10 0.5393
607.20 0.539
607.30 0.5387
607.40 0.5384
607.50 0.5381
607.60 0.5378
607.70 0.5375
607.80 0.5372
607.90 0.5369
608.00 0.5365
608.10 0.5362
608.20 0.5359
608.30 0.5356
608.40 0.5353
608.50 0.535
608.60 0.5347
608.70 0.5344
608.80 0.5341
608.90 0.5338
609.00 0.5335
609.10 0.5332
609.20 0.5329
609.30 0.5326
609.40 0.5323
609.50 0.532
609.60 0.5317
609.70 0.5314
609.80 0.5311
609.90 0.5308
610.00 0.5305
610.10 0.5302
610.20 0.5299
610.30 0.5295
610.40 0.5292
610.50 0.5289
610.60 0.5286
610.70 0.5283
610.80 0.528
610.90 0.5277
611.00 0.5274
611.10 0.5271
611.20 0.5268
611.30 0.5265
611.40 0.5262
611.50 0.5259
611.60 0.5256
611.70 0.5253
611.80 0.525
611.90 0.5247
612.00 0.5244
612.10 0.5241
612.20 0.5238
612.30 0.5235
612.40 0.5232
612.50 0.5229
612.60 0.5226
612.70 0.5223
612.80 0.522
612.90 0.5217
613.00 0.5214
613.10 0.5211
613.20 0.5208
613.30 0.5205
613.40 0.5202
613.50 0.5199
613.60 0.5197
613.70 0.5194
613.80 0.5191
613.90 0.5188
614.00 0.5185
614.10 0.5182
614.20 0.5179
614.30 0.5176
614.40 0.5173
614.50 0.517
614.60 0.5167
614.70 0.5164
614.80 0.5161
614.90 0.5158
615.00 0.5155
615.10 0.5152
615.20 0.5149
615.30 0.5146
615.40 0.5143
615.50 0.514
615.60 0.5137
615.70 0.5134
615.80 0.5131
615.90 0.5128
616.00 0.5126
616.10 0.5123
616.20 0.512
616.30 0.5117
616.40 0.5114
616.50 0.5111
616.60 0.5108
616.70 0.5105
616.80 0.5102
616.90 0.5099
617.00 0.5096
617.10 0.5093
617.20 0.509
617.30 0.5087
617.40 0.5084
617.50 0.5081
617.60 0.5079
617.70 0.5076
617.80 0.5073
617.90 0.507
618.00 0.5067
618.10 0.5064
618.20 0.5061
618.30 0.5058
618.40 0.5055
618.50 0.5052
618.60 0.5049
618.70 0.5046
618.80 0.5043
618.90 0.5041
619.00 0.5038
619.10 0.5035
619.20 0.5032
619.30 0.5029
619.40 0.5026
619.50 0.5023
619.60 0.502
619.70 0.5017
619.80 0.5014
619.90 0.5011
620.00 0.5009
620.10 0.5006
620.20 0.5003
620.30 0.5
620.40 0.4997
620.50 0.4994
620.60 0.4991
620.70 0.4988
620.80 0.4985
620.90 0.4982
621.00 0.498
621.10 0.4977
621.20 0.4974
621.30 0.4971
621.40 0.4968
621.50 0.4965
621.60 0.4962
621.70 0.4959
621.80 0.4956
621.90 0.4953
622.00 0.4951
622.10 0.4948
622.20 0.4945
622.30 0.4942
622.40 0.4939
622.50 0.4936
622.60 0.4933
622.70 0.493
622.80 0.4927
622.90 0.4925
623.00 0.4922
623.10 0.4919
623.20 0.4916
623.30 0.4913
623.40 0.491
623.50 0.4907
623.60 0.4904
623.70 0.4901
623.80 0.4898
623.90 0.4896
624.00 0.4893
624.10 0.489
624.20 0.4887
624.30 0.4884
624.40 0.4881
624.50 0.4878
624.60 0.4875
624.70 0.4872
624.80 0.487
624.90 0.4867
625.00 0.4864
625.10 0.4861
625.20 0.4858
625.30 0.4855
625.40 0.4852
625.50 0.4849
625.60 0.4846
625.70 0.4844
625.80 0.4841
625.90 0.4838
626.00 0.4835
626.10 0.4832
626.20 0.4829
626.30 0.4826
626.40 0.4823
626.50 0.482
626.60 0.4818
626.70 0.4815
626.80 0.4812
626.90 0.4809
627.00 0.4806
627.10 0.4803
627.20 0.48
627.30 0.4797
627.40 0.4794
627.50 0.4791
627.60 0.4789
627.70 0.4786
627.80 0.4783
627.90 0.478
628.00 0.4777
628.10 0.4774
628.20 0.4771
628.30 0.4768
628.40 0.4765
628.50 0.4762
628.60 0.476
628.70 0.4757
628.80 0.4754
628.90 0.4751
629.00 0.4748
629.10 0.4745
629.20 0.4742
629.30 0.4739
629.40 0.4736
629.50 0.4733
629.60 0.473
629.70 0.4727
629.80 0.4724
629.90 0.4722
630.00 0.4719
630.10 0.4716
630.20 0.4713
630.30 0.471
630.40 0.4707
630.50 0.4704
630.60 0.4701
630.70 0.4698
630.80 0.4695
630.90 0.4692
631.00 0.4689
631.10 0.4686
631.20 0.4683
631.30 0.468
631.40 0.4677
631.50 0.4674
631.60 0.4671
631.70 0.4668
631.80 0.4665
631.90 0.4662
632.00 0.4659
632.10 0.4656
632.20 0.4653
632.30 0.465
632.40 0.4647
632.50 0.4644
632.60 0.4641
632.70 0.4638
632.80 0.4635
632.90 0.4632
633.00 0.4629
633.10 0.4626
633.20 0.4623
633.30 0.462
633.40 0.4617
633.50 0.4614
633.60 0.4611
633.70 0.4608
633.80 0.4605
633.90 0.4601
634.00 0.4598
634.10 0.4595
634.20 0.4592
634.30 0.4589
634.40 0.4586
634.50 0.4583
634.60 0.458
634.70 0.4576
634.80 0.4573
634.90 0.457
635.00 0.4567
635.10 0.4564
635.20 0.4561
635.30 0.4558
635.40 0.4554
635.50 0.4551
635.60 0.4548
635.70 0.4545
635.80 0.4541
635.90 0.4538
636.00 0.4535
636.10 0.4532
636.20 0.4528
636.30 0.4525
636.40 0.4522
636.50 0.4518
636.60 0.4515
636.70 0.4512
636.80 0.4508
636.90 0.4505
637.00 0.4502
637.10 0.4498
637.20 0.4495
637.30 0.4492
637.40 0.4488
637.50 0.4485
637.60 0.4481
637.70 0.4478
637.80 0.4474
637.90 0.4471
638.00 0.4467
638.10 0.4464
638.20 0.4461
638.30 0.4457
638.40 0.4453
638.50 0.445
638.60 0.4446
638.70 0.4443
638.80 0.4439
638.90 0.4435
639.00 0.4432
639.10 0.4428
639.20 0.4425
639.30 0.4421
639.40 0.4417
639.50 0.4413
639.60 0.4409
639.70 0.4406
639.80 0.4402
639.90 0.4398
640.00 0.4394
640.10 0.439
640.20 0.4387
640.30 0.4383
640.40 0.4379
640.50 0.4375
640.60 0.4371
640.70 0.4367
640.80 0.4363
640.90 0.4359
641.00 0.4355
641.10 0.435
641.20 0.4346
641.30 0.4342
641.40 0.4338
641.50 0.4334
641.60 0.4329
641.70 0.4325
641.80 0.4321
641.90 0.4316
642.00 0.4312
642.10 0.4308
642.20 0.4304
642.30 0.4299
642.40 0.4295
642.50 0.429
642.60 0.4285
642.70 0.4281
642.80 0.4276
642.90 0.4271
643.00 0.4267
643.10 0.4262
643.20 0.4257
643.30 0.4253
643.40 0.4247
643.50 0.4242
643.60 0.4237
643.70 0.4232
643.80 0.4227
643.90 0.4222
644.00 0.4217
644.10 0.4212
644.20 0.4207
644.30 0.4201
644.40 0.4196
644.50 0.419
644.60 0.4184
644.70 0.4179
644.80 0.4173
644.90 0.4167
645.00 0.4162
645.10 0.4156
645.20 0.415
645.30 0.4145
645.40 0.4138
645.50 0.4132
645.60 0.4126
645.70 0.4119
645.80 0.4113
645.90 0.4107
646.00 0.41
646.10 0.4094
646.20 0.4088
646.30 0.4081
646.40 0.4074
646.50 0.4067
646.60 0.406
646.70 0.4053
646.80 0.4046
646.90 0.4038
647.00 0.4031
647.10 0.4024
647.20 0.4017
647.30 0.401
647.40 0.4001
647.50 0.3993
647.60 0.3985
647.70 0.3977
647.80 0.3968
647.90 0.396
648.00 0.3952
648.10 0.3944
648.20 0.3936
648.30 0.3927
648.40 0.3917
648.50 0.3908
648.60 0.3898
648.70 0.3889
648.80 0.3879
648.90 0.3869
649.00 0.386
649.10 0.385
649.20 0.384
649.30 0.3831
649.40 0.3819
649.50 0.3808
649.60 0.3797
649.70 0.3786
649.80 0.3774
649.90 0.3763
650.00 0.3752
650.10 0.3741
650.20 0.373
650.30 0.3718
650.40 0.3705
650.50 0.3691
650.60 0.3678
650.70 0.3665
650.80 0.3652
650.90 0.3638
651.00 0.3625
651.10 0.3612
651.20 0.3599
651.30 0.3585
651.40 0.3569
651.50 0.3554
651.60 0.3538
651.70 0.3522
651.80 0.3507
651.90 0.3491
652.00 0.3476
652.10 0.346
652.20 0.3444
652.30 0.3428
652.40 0.341
652.50 0.3391
652.60 0.3373
652.70 0.3354
652.80 0.3336
652.90 0.3317
653.00 0.3299
653.10 0.328
653.20 0.3262
653.30 0.3243
653.40 0.3221
653.50 0.3198
653.60 0.3176
653.70 0.3154
653.80 0.3132
653.90 0.311
654.00 0.3088
654.10 0.3065
654.20 0.3043
654.30 0.3021
654.40 0.2995
654.50 0.297
654.60 0.2945
654.70 0.292
654.80 0.2894
654.90 0.2865
655.00 0.2836
655.10 0.2807
655.20 0.2778
655.30 0.2748
655.40 0.2716
655.50 0.2683
655.60 0.2647
655.70 0.2608
655.80 0.2563
655.90 0.2512
656.00 0.2437
656.10 0.2353
656.20 0.2115
656.30 0.1877
656.40 0.2246
656.50 0.2385
656.60 0.2459
656.70 0.2527
656.80 0.257
656.90 0.2611
657.00 0.2645
657.10 0.2678
657.20 0.2708
657.30 0.2737
657.40 0.2763
657.50 0.279
657.60 0.2816
657.70 0.2842
657.80 0.2868
657.90 0.289
658.00 0.2912
658.10 0.2935
658.20 0.2957
658.30 0.2979
658.40 0.2998
658.50 0.3017
658.60 0.3036
658.70 0.3055
658.80 0.3074
658.90 0.3092
659.00 0.3111
659.10 0.313
659.20 0.3149
659.30 0.3167
659.40 0.3182
659.50 0.3197
659.60 0.3212
659.70 0.3227
659.80 0.3242
659.90 0.3257
660.00 0.3271
660.10 0.3286
660.20 0.3301
660.30 0.3315
660.40 0.3327
660.50 0.3339
660.60 0.3351
660.70 0.3362
660.80 0.3374
660.90 0.3386
661.00 0.3398
661.10 0.3409
661.20 0.3421
661.30 0.3432
661.40 0.3441
661.50 0.345
661.60 0.346
661.70 0.3469
661.80 0.3478
661.90 0.3487
662.00 0.3496
662.10 0.3505
662.20 0.3514
662.30 0.3523
662.40 0.353
662.50 0.3537
662.60 0.3544
662.70 0.3551
662.80 0.3557
662.90 0.3564
663.00 0.3571
663.10 0.3578
663.20 0.3585
663.30 0.3591
663.40 0.3597
663.50 0.3602
663.60 0.3607
663.70 0.3612
663.80 0.3617
663.90 0.3623
664.00 0.3628
664.10 0.3633
664.20 0.3638
664.30 0.3643
664.40 0.3647
664.50 0.365
664.60 0.3654
664.70 0.3658
664.80 0.3661
664.90 0.3665
665.00 0.3669
665.10 0.3672
665.20 0.3676
665.30 0.368
665.40 0.3682
665.50 0.3685
665.60 0.3687
665.70 0.369
665.80 0.3692
665.90 0.3695
666.00 0.3697
666.10 0.37
666.20 0.3703
666.30 0.3705
666.40 0.3707
666.50 0.3708
666.60 0.371
666.70 0.3712
666.80 0.3713
666.90 0.3715
667.00 0.3717
667.10 0.3719
667.20 0.372
667.30 0.3722
667.40 0.3723
667.50 0.3724
667.60 0.3725
667.70 0.3726
667.80 0.3727
667.90 0.3728
668.00 0.3729
668.10 0.373
668.20 0.3731
668.30 0.3732
668.40 0.3732
668.50 0.3733
668.60 0.3733
668.70 0.3734
668.80 0.3734
668.90 0.3735
669.00 0.3735
669.10 0.3736
669.20 0.3736
669.30 0.3736
669.40 0.3737
669.50 0.3737
669.60 0.3737
669.70 0.3737
669.80 0.3737
669.90 0.3737
670.00 0.3737
670.10 0.3737
670.20 0.3737
670.30 0.3737
670.40 0.3736
670.50 0.3736
670.60 0.3736
670.70 0.3735
670.80 0.3735
670.90 0.3735
671.00 0.3735
671.10 0.3734
671.20 0.3734
671.30 0.3734
671.40 0.3733
671.50 0.3732
671.60 0.3732
671.70 0.3731
671.80 0.3731
671.90 0.373
672.00 0.3729
672.10 0.3729
672.20 0.3728
672.30 0.3728
672.40 0.3727
672.50 0.3726
672.60 0.3725
672.70 0.3724
672.80 0.3724
672.90 0.3723
673.00 0.3722
673.10 0.3721
673.20 0.372
673.30 0.372
673.40 0.3719
673.50 0.3718
673.60 0.3717
673.70 0.3716
673.80 0.3715
673.90 0.3714
674.00 0.3713
674.10 0.3712
674.20 0.3711
674.30 0.371
674.40 0.3709
674.50 0.3708
674.60 0.3707
674.70 0.3705
674.80 0.3704
674.90 0.3703
675.00 0.3702
675.10 0.3701
675.20 0.37
675.30 0.3699
675.40 0.3697
675.50 0.3696
675.60 0.3695
675.70 0.3694
675.80 0.3693
675.90 0.3691
676.00 0.369
676.10 0.3689
676.20 0.3688
676.30 0.3686
676.40 0.3685
676.50 0.3684
676.60 0.3682
676.70 0.3681
676.80 0.368
676.90 0.3679
677.00 0.3677
677.10 0.3676
677.20 0.3675
677.30 0.3673
677.40 0.3672
677.50 0.367
677.60 0.3669
677.70 0.3668
677.80 0.3666
677.90 0.3665
678.00 0.3664
678.10 0.3662
678.20 0.3661
678.30 0.3659
678.40 0.3658
678.50 0.3656
678.60 0.3655
678.70 0.3654
678.80 0.3652
678.90 0.3651
679.00 0.3649
679.10 0.3648
679.20 0.3646
679.30 0.3645
679.40 0.3643
679.50 0.3642
679.60 0.364
679.70 0.3639
679.80 0.3637
679.90 0.3636
680.00 0.3634
680.10 0.3633
680.20 0.3631
680.30 0.363
680.40 0.3628
680.50 0.3627
680.60 0.3625
680.70 0.3624
680.80 0.3622
680.90 0.3621
681.00 0.3619
681.10 0.3618
681.20 0.3616
681.30 0.3615
681.40 0.3613
681.50 0.3611
681.60 0.361
681.70 0.3608
681.80 0.3607
681.90 0.3605
682.00 0.3604
682.10 0.3602
682.20 0.36
682.30 0.3599
682.40 0.3597
682.50 0.3596
682.60 0.3594
682.70 0.3593
682.80 0.3591
682.90 0.3589
683.00 0.3588
683.10 0.3586
683.20 0.3585
683.30 0.3583
683.40 0.3581
683.50 0.358
683.60 0.3578
683.70 0.3577
683.80 0.3575
683.90 0.3573
684.00 0.3572
684.10 0.357
684.20 0.3569
684.30 0.3567
684.40 0.3565
684.50 0.3564
684.60 0.3562
684.70 0.3561
684.80 0.3559
684.90 0.3557
685.00 0.3556
685.10 0.3554
685.20 0.3553
685.30 0.3551
685.40 0.3549
685.50 0.3548
685.60 0.3546
685.70 0.3544
685.80 0.3543
685.90 0.3541
686.00 0.354
686.10 0.3538
686.20 0.3536
686.30 0.3535
686.40 0.3533
686.50 0.3531
686.60 0.353
686.70 0.3528
686.80 0.3526
686.90 0.3525
687.00 0.3523
687.10 0.3522
687.20 0.352
687.30 0.3518
687.40 0.3517
687.50 0.3515
687.60 0.3513
687.70 0.3512
687.80 0.351
687.90 0.3509
688.00 0.3507
688.10 0.3505
688.20 0.3504
688.30 0.3502
688.40 0.35
688.50 0.3499
688.60 0.3497
688.70 0.3495
688.80 0.3494
688.90 0.3492
689.00 0.3491
689.10 0.3489
689.20 0.3487
689.30 0.3486
689.40 0.3484
689.50 0.3482
689.60 0.3481
689.70 0.3479
689.80 0.3477
689.90 0.3476
690.00 0.3474
690.10 0.3472
690.20 0.3471
690.30 0.3469
690.40 0.3467
690.50 0.3466
690.60 0.3464
690.70 0.3462
690.80 0.3461
690.90 0.3459
691.00 0.3457
691.10 0.3456
691.20 0.3454
691.30 0.3452
691.40 0.3451
691.50 0.3449
691.60 0.3447
691.70 0.3446
691.80 0.3444
691.90 0.3443
692.00 0.3441
692.10 0.3439
692.20 0.3438
692.30 0.3436
692.40 0.3434
692.50 0.3433
692.60 0.3431
692.70 0.3429
692.80 0.3428
692.90 0.3426
693.00 0.3424
693.10 0.3423
693.20 0.3421
693.30 0.342
693.40 0.3418
693.50 0.3416
693.60 0.3415
693.70 0.3413
693.80 0.3411
693.90 0.341
694.00 0.3408
694.10 0.3406
694.20 0.3405
694.30 0.3403
694.40 0.3402
694.50 0.34
694.60 0.3398
694.70 0.3397
694.80 0.3395
694.90 0.3393
695.00 0.3392
695.10 0.339
695.20 0.3389
695.30 0.3387
695.40 0.3385
695.50 0.3384
695.60 0.3382
695.70 0.3381
695.80 0.3379
695.90 0.3377
696.00 0.3376
696.10 0.3374
696.20 0.3372
696.30 0.3371
696.40 0.3369
696.50 0.3368
696.60 0.3366
696.70 0.3364
696.80 0.3363
696.90 0.3361
697.00 0.336
697.10 0.3358
697.20 0.3356
697.30 0.3355
697.40 0.3353
697.50 0.3352
697.60 0.335
697.70 0.3348
697.80 0.3347
697.90 0.3345
698.00 0.3344
698.10 0.3342
698.20 0.334
698.30 0.3339
698.40 0.3337
698.50 0.3336
698.60 0.3334
698.70 0.3332
698.80 0.3331
698.90 0.3329
699.00 0.3328
699.10 0.3326
699.20 0.3324
699.30 0.3323
699.40 0.3321
699.50 0.332
699.60 0.3318
699.70 0.3316
699.80 0.3315
699.90 0.3313
700.00 0.3312
700.10 0.331
700.20 0.3309
700.30 0.3307
700.40 0.3306
700.50 0.3304
700.60 0.3303
700.70 0.3301
700.80 0.33
700.90 0.3298
701.00 0.3297
701.10 0.3295
701.20 0.3294
701.30 0.3292
701.40 0.3291
701.50 0.3289
701.60 0.3288
701.70 0.3286
701.80 0.3285
701.90 0.3283
702.00 0.3282
702.10 0.328
702.20 0.3279
702.30 0.3277
702.40 0.3276
702.50 0.3274
702.60 0.3273
702.70 0.3271
702.80 0.327
702.90 0.3268
703.00 0.3267
703.10 0.3265
703.20 0.3264
703.30 0.3262
703.40 0.3261
703.50 0.3259
703.60 0.3258
703.70 0.3256
703.80 0.3255
703.90 0.3253
704.00 0.3252
704.10 0.325
704.20 0.3249
704.30 0.3247
704.40 0.3246
704.50 0.3244
704.60 0.3243
704.70 0.3241
704.80 0.324
704.90 0.3238
705.00 0.3237
705.10 0.3235
705.20 0.3234
705.30 0.3232
705.40 0.3231
705.50 0.3229
705.60 0.3227
705.70 0.3226
705.80 0.3224
705.90 0.3223
706.00 0.3221
706.10 0.322
706.20 0.3218
706.30 0.3216
706.40 0.3215
706.50 0.3213
706.60 0.3212
706.70 0.321
706.80 0.3209
706.90 0.3207
707.00 0.3206
707.10 0.3204
707.20 0.3203
707.30 0.3201
707.40 0.3199
707.50 0.3198
707.60 0.3196
707.70 0.3195
707.80 0.3193
707.90 0.3192
708.00 0.319
708.10 0.3189
708.20 0.3187
708.30 0.3186
708.40 0.3184
708.50 0.3182
708.60 0.3181
708.70 0.3179
708.80 0.3178
708.90 0.3176
709.00 0.3175
709.10 0.3173
709.20 0.3172
709.30 0.317
709.40 0.3169
709.50 0.3167
709.60 0.3166
709.70 0.3164
709.80 0.3162
709.90 0.3161
710.00 0.3159
710.10 0.3158
710.20 0.3156
710.30 0.3155
710.40 0.3153
710.50 0.3152
710.60 0.315
710.70 0.3149
710.80 0.3147
710.90 0.3146
711.00 0.3144
711.10 0.3143
711.20 0.3141
711.30 0.314
711.40 0.3138
711.50 0.3137
711.60 0.3135
711.70 0.3134
711.80 0.3132
711.90 0.3131
712.00 0.3129
712.10 0.3128
712.20 0.3126
712.30 0.3125
712.40 0.3123
712.50 0.3122
712.60 0.312
712.70 0.3119
712.80 0.3117
712.90 0.3116
713.00 0.3114
713.10 0.3113
713.20 0.3111
713.30 0.311
713.40 0.3108
713.50 0.3107
713.60 0.3105
713.70 0.3104
713.80 0.3102
713.90 0.3101
714.00 0.3099
714.10 0.3098
714.20 0.3096
714.30 0.3095
714.40 0.3093
714.50 0.3092
714.60 0.309
714.70 0.3089
714.80 0.3087
714.90 0.3086
715.00 0.3084
715.10 0.3083
715.20 0.3081
715.30 0.308
715.40 0.3078
715.50 0.3077
715.60 0.3075
715.70 0.3074
715.80 0.3073
715.90 0.3071
716.00 0.307
716.10 0.3068
716.20 0.3067
716.30 0.3065
716.40 0.3064
716.50 0.3063
716.60 0.3061
716.70 0.306
716.80 0.3058
716.90 0.3057
717.00 0.3055
717.10 0.3054
717.20 0.3053
717.30 0.3051
717.40 0.305
717.50 0.3048
717.60 0.3047
717.70 0.3045
717.80 0.3044
717.90 0.3043
718.00 0.3041
718.10 0.304
718.20 0.3038
718.30 0.3037
718.40 0.3035
718.50 0.3034
718.60 0.3033
718.70 0.3031
718.80 0.303
718.90 0.3028
719.00 0.3027
719.10 0.3025
719.20 0.3024
719.30 0.3023
719.40 0.3021
719.50 0.302
719.60 0.3018
719.70 0.3017
719.80 0.3016
719.90 0.3014
720.00 0.3013
720.10 0.3011
720.20 0.301
720.30 0.3008
720.40 0.3007
720.50 0.3006
720.60 0.3004
720.70 0.3003
720.80 0.3001
720.90 0.3
721.00 0.2998
721.10 0.2997
721.20 0.2995
721.30 0.2994
721.40 0.2993
721.50 0.2991
721.60 0.299
721.70 0.2988
721.80 0.2987
721.90 0.2985
722.00 0.2984
722.10 0.2983
722.20 0.2981
722.30 0.298
722.40 0.2978
722.50 0.2977
722.60 0.2975
722.70 0.2974
722.80 0.2972
722.90 0.2971
723.00 0.297
723.10 0.2968
723.20 0.2967
723.30 0.2965
723.40 0.2964
723.50 0.2962
723.60 0.2961
723.70 0.296
723.80 0.2958
723.90 0.2957
724.00 0.2955
724.10 0.2954
724.20 0.2953
724.30 0.2951
724.40 0.295
724.50 0.2948
724.60 0.2947
724.70 0.2945
724.80 0.2944
724.90 0.2943
725.00 0.2941
725.10 0.294
725.20 0.2938
725.30 0.2937
725.40 0.2936
725.50 0.2934
725.60 0.2933
725.70 0.2931
725.80 0.293
725.90 0.2929
726.00 0.2927
726.10 0.2926
726.20 0.2924
726.30 0.2923
726.40 0.2922
726.50 0.292
726.60 0.2919
726.70 0.2917
726.80 0.2916
726.90 0.2915
727.00 0.2913
727.10 0.2912
727.20 0.291
727.30 0.2909
727.40 0.2908
727.50 0.2906
727.60 0.2905
727.70 0.2904
727.80 0.2902
727.90 0.2901
728.00 0.2899
728.10 0.2898
728.20 0.2897
728.30 0.2895
728.40 0.2894
728.50 0.2892
728.60 0.2891
728.70 0.289
728.80 0.2888
728.90 0.2887
729.00 0.2886
729.10 0.2884
729.20 0.2883
729.30 0.2881
729.40 0.288
729.50 0.2879
729.60 0.2877
729.70 0.2876
729.80 0.2875
729.90 0.2873
730.00 0.2872
730.10 0.287
730.20 0.2869
730.30 0.2868
730.40 0.2866
730.50 0.2865
730.60 0.2864
730.70 0.2862
730.80 0.2861
730.90 0.286
731.00 0.2858
731.10 0.2857
731.20 0.2856
731.30 0.2854
731.40 0.2853
731.50 0.2852
731.60 0.285
731.70 0.2849
731.80 0.2847
731.90 0.2846
732.00 0.2845
732.10 0.2843
732.20 0.2842
732.30 0.2841
732.40 0.2839
732.50 0.2838
732.60 0.2837
732.70 0.2835
732.80 0.2834
732.90 0.2833
733.00 0.2831
733.10 0.283
733.20 0.2829
733.30 0.2827
733.40 0.2826
733.50 0.2825
733.60 0.2823
733.70 0.2822
733.80 0.2821
733.90 0.2819
734.00 0.2818
734.10 0.2817
734.20 0.2815
734.30 0.2814
734.40 0.2813
734.50 0.2811
734.60 0.281
734.70 0.2809
734.80 0.2807
734.90 0.2806
735.00 0.2805
735.10 0.2803
735.20 0.2802
735.30 0.2801
735.40 0.2799
735.50 0.2798
735.60 0.2797
735.70 0.2795
735.80 0.2794
735.90 0.2793
736.00 0.2791
736.10 0.279
736.20 0.2789
736.30 0.2787
736.40 0.2786
736.50 0.2785
736.60 0.2784
736.70 0.2782
736.80 0.2781
736.90 0.278
737.00 0.2778
737.10 0.2777
737.20 0.2776
737.30 0.2774
737.40 0.2773
737.50 0.2772
737.60 0.277
737.70 0.2769
737.80 0.2768
737.90 0.2766
738.00 0.2765
738.10 0.2764
738.20 0.2763
738.30 0.2761
738.40 0.276
738.50 0.2759
738.60 0.2757
738.70 0.2756
738.80 0.2755
738.90 0.2753
739.00 0.2752
739.10 0.2751
739.20 0.2749
739.30 0.2748
739.40 0.2747
739.50 0.2746
739.60 0.2744
739.70 0.2743
739.80 0.2742
739.90 0.274
740.00 0.2739
740.10 0.2738
740.20 0.2737
740.30 0.2735
740.40 0.2734
740.50 0.2733
740.60 0.2731
740.70 0.273
740.80 0.2729
740.90 0.2728
741.00 0.2726
741.10 0.2725
741.20 0.2724
741.30 0.2722
741.40 0.2721
741.50 0.272
741.60 0.2719
741.70 0.2717
741.80 0.2716
741.90 0.2715
742.00 0.2714
742.10 0.2712
742.20 0.2711
742.30 0.271
742.40 0.2709
742.50 0.2707
742.60 0.2706
742.70 0.2705
742.80 0.2703
742.90 0.2702
743.00 0.2701
743.10 0.27
743.20 0.2698
743.30 0.2697
743.40 0.2696
743.50 0.2695
743.60 0.2693
743.70 0.2692
743.80 0.2691
743.90 0.269
744.00 0.2688
744.10 0.2687
744.20 0.2686
744.30 0.2685
744.40 0.2683
744.50 0.2682
744.60 0.2681
744.70 0.268
744.80 0.2678
744.90 0.2677
745.00 0.2676
745.10 0.2675
745.20 0.2673
745.30 0.2672
745.40 0.2671
745.50 0.267
745.60 0.2668
745.70 0.2667
745.80 0.2666
745.90 0.2665
746.00 0.2663
746.10 0.2662
746.20 0.2661
746.30 0.266
746.40 0.2658
746.50 0.2657
746.60 0.2656
746.70 0.2655
746.80 0.2653
746.90 0.2652
747.00 0.2651
747.10 0.265
747.20 0.2648
747.30 0.2647
747.40 0.2646
747.50 0.2645
747.60 0.2643
747.70 0.2642
747.80 0.2641
747.90 0.264
748.00 0.2638
748.10 0.2637
748.20 0.2636
748.30 0.2635
748.40 0.2634
748.50 0.2632
748.60 0.2631
748.70 0.263
748.80 0.2629
748.90 0.2627
749.00 0.2626
749.10 0.2625
749.20 0.2624
749.30 0.2622
749.40 0.2621
749.50 0.262
749.60 0.2619
749.70 0.2618
749.80 0.2616
749.90 0.2615
750.00 0.2614
750.10 0.2613
750.20 0.2611
750.30 0.261
750.40 0.2609
750.50 0.2608
750.60 0.2607
750.70 0.2605
750.80 0.2604
750.90 0.2603
751.00 0.2602
751.10 0.2601
751.20 0.2599
751.30 0.2598
751.40 0.2597
751.50 0.2596
751.60 0.2595
751.70 0.2593
751.80 0.2592
751.90 0.2591
752.00 0.259
752.10 0.2589
752.20 0.2587
752.30 0.2586
752.40 0.2585
752.50 0.2584
752.60 0.2583
752.70 0.2582
752.80 0.258
752.90 0.2579
753.00 0.2578
753.10 0.2577
753.20 0.2576
753.30 0.2574
753.40 0.2573
753.50 0.2572
753.60 0.2571
753.70 0.257
753.80 0.2568
753.90 0.2567
754.00 0.2566
754.10 0.2565
754.20 0.2564
754.30 0.2563
754.40 0.2561
754.50 0.256
754.60 0.2559
754.70 0.2558
754.80 0.2557
754.90 0.2555
755.00 0.2554
755.10 0.2553
755.20 0.2552
755.30 0.2551
755.40 0.255
755.50 0.2548
755.60 0.2547
755.70 0.2546
755.80 0.2545
755.90 0.2544
756.00 0.2542
756.10 0.2541
756.20 0.254
756.30 0.2539
756.40 0.2538
756.50 0.2537
756.60 0.2535
756.70 0.2534
756.80 0.2533
756.90 0.2532
757.00 0.2531
757.10 0.253
757.20 0.2528
757.30 0.2527
757.40 0.2526
757.50 0.2525
757.60 0.2524
757.70 0.2523
757.80 0.2521
757.90 0.252
758.00 0.2519
758.10 0.2518
758.20 0.2517
758.30 0.2516
758.40 0.2514
758.50 0.2513
758.60 0.2512
758.70 0.2511
758.80 0.251
758.90 0.2509
759.00 0.2507
759.10 0.2506
759.20 0.2505
759.30 0.2504
759.40 0.2503
759.50 0.2502
759.60 0.2501
759.70 0.2499
759.80 0.2498
759.90 0.2497
760.00 0.2496
760.10 0.2495
760.20 0.2494
760.30 0.2492
760.40 0.2491
760.50 0.249
760.60 0.2489
760.70 0.2488
760.80 0.2487
760.90 0.2486
761.00 0.2485
761.10 0.2483
761.20 0.2482
761.30 0.2481
761.40 0.248
761.50 0.2479
761.60 0.2478
761.70 0.2477
761.80 0.2475
761.90 0.2474
762.00 0.2473
762.10 0.2472
762.20 0.2471
762.30 0.247
762.40 0.2469
762.50 0.2468
762.60 0.2466
762.70 0.2465
762.80 0.2464
762.90 0.2463
763.00 0.2462
763.10 0.2461
763.20 0.246
763.30 0.2459
763.40 0.2457
763.50 0.2456
763.60 0.2455
763.70 0.2454
763.80 0.2453
763.90 0.2452
764.00 0.2451
764.10 0.245
764.20 0.2449
764.30 0.2447
764.40 0.2446
764.50 0.2445
764.60 0.2444
764.70 0.2443
764.80 0.2442
764.90 0.2441
765.00 0.244
765.10 0.2438
765.20 0.2437
765.30 0.2436
765.40 0.2435
765.50 0.2434
765.60 0.2433
765.70 0.2432
765.80 0.2431
765.90 0.243
766.00 0.2428
766.10 0.2427
766.20 0.2426
766.30 0.2425
766.40 0.2424
766.50 0.2423
766.60 0.2422
766.70 0.2421
766.80 0.242
766.90 0.2419
767.00 0.2417
767.10 0.2416
767.20 0.2415
767.30 0.2414
767.40 0.2413
767.50 0.2412
767.60 0.2411
767.70 0.241
767.80 0.2409
767.90 0.2408
768.00 0.2406
768.10 0.2405
768.20 0.2404
768.30 0.2403
768.40 0.2402
768.50 0.2401
768.60 0.24
768.70 0.2399
768.80 0.2398
768.90 0.2397
769.00 0.2395
769.10 0.2394
769.20 0.2393
769.30 0.2392
769.40 0.2391
769.50 0.239
769.60 0.2389
769.70 0.2388
769.80 0.2387
769.90 0.2386
770.00 0.2385
770.10 0.2383
770.20 0.2382
770.30 0.2381
770.40 0.238
770.50 0.2379
770.60 0.2378
770.70 0.2377
770.80 0.2376
770.90 0.2375
771.00 0.2374
771.10 0.2373
771.20 0.2372
771.30 0.2371
771.40 0.237
771.50 0.2368
771.60 0.2367
771.70 0.2366
771.80 0.2365
771.90 0.2364
772.00 0.2363
772.10 0.2362
772.20 0.2361
772.30 0.236
772.40 0.2359
772.50 0.2358
772.60 0.2357
772.70 0.2356
772.80 0.2355
772.90 0.2354
773.00 0.2352
773.10 0.2351
773.20 0.235
773.30 0.2349
773.40 0.2348
773.50 0.2347
773.60 0.2346
773.70 0.2345
773.80 0.2344
773.90 0.2343
774.00 0.2342
774.10 0.2341
774.20 0.234
774.30 0.2339
774.40 0.2338
774.50 0.2337
774.60 0.2336
774.70 0.2334
774.80 0.2333
774.90 0.2332
775.00 0.2331
775.10 0.233
775.20 0.2329
775.30 0.2328
775.40 0.2327
775.50 0.2326
775.60 0.2325
775.70 0.2324
775.80 0.2323
775.90 0.2322
776.00 0.2321
776.10 0.232
776.20 0.2319
776.30 0.2318
776.40 0.2317
776.50 0.2316
776.60 0.2315
776.70 0.2314
776.80 0.2312
776.90 0.2311
777.00 0.231
777.10 0.2309
777.20 0.2308
777.30 0.2307
777.40 0.2306
777.50 0.2305
777.60 0.2304
777.70 0.2303
777.80 0.2302
777.90 0.2301
778.00 0.23
778.10 0.2299
778.20 0.2298
778.30 0.2297
778.40 0.2296
778.50 0.2295
778.60 0.2294
778.70 0.2293
778.80 0.2292
778.90 0.2291
779.00 0.229
779.10 0.2289
779.20 0.2288
779.30 0.2287
779.40 0.2285
779.50 0.2284
779.60 0.2283
779.70 0.2282
779.80 0.2281
779.90 0.228
780.00 0.2279
780.10 0.2278
780.20 0.2277
780.30 0.2276
780.40 0.2275
780.50 0.2274
780.60 0.2273
780.70 0.2272
780.80 0.2271
780.90 0.227
781.00 0.2269
781.10 0.2268
781.20 0.2267
781.30 0.2266
781.40 0.2265
781.50 0.2264
781.60 0.2263
781.70 0.2262
781.80 0.2261
781.90 0.226
782.00 0.2259
782.10 0.2258
782.20 0.2257
782.30 0.2256
782.40 0.2255
782.50 0.2254
782.60 0.2253
782.70 0.2252
782.80 0.2251
782.90 0.225
783.00 0.2249
783.10 0.2248
783.20 0.2247
783.30 0.2246
783.40 0.2245
783.50 0.2244
783.60 0.2243
783.70 0.2242
783.80 0.2241
783.90 0.224
784.00 0.2239
784.10 0.2238
784.20 0.2237
784.30 0.2236
784.40 0.2235
784.50 0.2234
784.60 0.2233
784.70 0.2232
784.80 0.2231
784.90 0.223
785.00 0.2229
785.10 0.2228
785.20 0.2227
785.30 0.2226
785.40 0.2225
785.50 0.2224
785.60 0.2223
785.70 0.2222
785.80 0.2221
785.90 0.222
786.00 0.2219
786.10 0.2218
786.20 0.2217
786.30 0.2216
786.40 0.2215
786.50 0.2214
786.60 0.2213
786.70 0.2212
786.80 0.2211
786.90 0.221
787.00 0.2209
787.10 0.2208
787.20 0.2207
787.30 0.2206
787.40 0.2205
787.50 0.2204
787.60 0.2203
787.70 0.2202
787.80 0.2201
787.90 0.22
788.00 0.2199
788.10 0.2198
788.20 0.2197
788.30 0.2196
788.40 0.2195
788.50 0.2195
788.60 0.2194
788.70 0.2193
788.80 0.2192
788.90 0.2191
789.00 0.219
789.10 0.2189
789.20 0.2188
789.30 0.2187
789.40 0.2186
789.50 0.2185
789.60 0.2184
789.70 0.2183
789.80 0.2182
789.90 0.2181
790.00 0.218
790.10 0.2179
790.20 0.2178
790.30 0.2177
790.40 0.2176
790.50 0.2175
790.60 0.2174
790.70 0.2173
790.80 0.2172
790.90 0.2171
791.00 0.217
791.10 0.2169
791.20 0.2168
791.30 0.2167
791.40 0.2166
791.50 0.2166
791.60 0.2165
791.70 0.2164
791.80 0.2163
791.90 0.2162
792.00 0.2161
792.10 0.216
792.20 0.2159
792.30 0.2158
792.40 0.2157
792.50 0.2156
792.60 0.2155
792.70 0.2154
792.80 0.2153
792.90 0.2152
793.00 0.2151
793.10 0.215
793.20 0.2149
793.30 0.2148
793.40 0.2147
793.50 0.2146
793.60 0.2146
793.70 0.2145
793.80 0.2144
793.90 0.2143
794.00 0.2142
794.10 0.2141
794.20 0.214
794.30 0.2139
794.40 0.2138
794.50 0.2137
794.60 0.2136
794.70 0.2135
794.80 0.2134
794.90 0.2133
795.00 0.2132
795.10 0.2131
795.20 0.213
795.30 0.213
795.40 0.2129
795.50 0.2128
795.60 0.2127
795.70 0.2126
795.80 0.2125
795.90 0.2124
796.00 0.2123
796.10 0.2122
796.20 0.2121
796.30 0.212
796.40 0.2119
796.50 0.2118
796.60 0.2117
796.70 0.2116
796.80 0.2115
796.90 0.2115
797.00 0.2114
797.10 0.2113
797.20 0.2112
797.30 0.2111
797.40 0.211
797.50 0.2109
797.60 0.2108
797.70 0.2107
797.80 0.2106
797.90 0.2105
798.00 0.2104
798.10 0.2103
798.20 0.2102
798.30 0.2102
798.40 0.2101
798.50 0.21
798.60 0.2099
798.70 0.2098
798.80 0.2097
798.90 0.2096
799.00 0.2095
799.10 0.2094
799.20 0.2093
799.30 0.2092
799.40 0.2091
799.50 0.209
799.60 0.209
799.70 0.2089
799.80 0.2088
799.90 0.2087
800.00 0.2086
800.10 0.2085
800.20 0.2084
800.30 0.2083
800.40 0.2082
800.50 0.2081
800.60 0.208
800.70 0.2079
800.80 0.2079
800.90 0.2078
801.00 0.2077
801.10 0.2076
801.20 0.2075
801.30 0.2074
801.40 0.2073
801.50 0.2072
801.60 0.2071
801.70 0.207
801.80 0.207
801.90 0.2069
802.00 0.2068
802.10 0.2067
802.20 0.2066
802.30 0.2065
802.40 0.2064
802.50 0.2063
802.60 0.2062
802.70 0.2061
802.80 0.2061
802.90 0.206
803.00 0.2059
803.10 0.2058
803.20 0.2057
803.30 0.2056
803.40 0.2055
803.50 0.2054
803.60 0.2053
803.70 0.2052
803.80 0.2052
803.90 0.2051
804.00 0.205
804.10 0.2049
804.20 0.2048
804.30 0.2047
804.40 0.2046
804.50 0.2045
804.60 0.2044
804.70 0.2044
804.80 0.2043
804.90 0.2042
805.00 0.2041
805.10 0.204
805.20 0.2039
805.30 0.2038
805.40 0.2037
805.50 0.2036
805.60 0.2036
805.70 0.2035
805.80 0.2034
805.90 0.2033
806.00 0.2032
806.10 0.2031
806.20 0.203
806.30 0.2029
806.40 0.2028
806.50 0.2028
806.60 0.2027
806.70 0.2026
806.80 0.2025
806.90 0.2024
807.00 0.2023
807.10 0.2022
807.20 0.2021
807.30 0.202
807.40 0.202
807.50 0.2019
807.60 0.2018
807.70 0.2017
807.80 0.2016
807.90 0.2015
808.00 0.2014
808.10 0.2013
808.20 0.2013
808.30 0.2012
808.40 0.2011
808.50 0.201
808.60 0.2009
808.70 0.2008
808.80 0.2007
808.90 0.2006
809.00 0.2006
809.10 0.2005
809.20 0.2004
809.30 0.2003
809.40 0.2002
809.50 0.2001
809.60 0.2
809.70 0.1999
809.80 0.1999
809.90 0.1998
810.00 0.1997
810.10 0.1996
810.20 0.1995
810.30 0.1994
810.40 0.1993
810.50 0.1993
810.60 0.1992
810.70 0.1991
810.80 0.199
810.90 0.1989
811.00 0.1988
811.10 0.1987
811.20 0.1987
811.30 0.1986
811.40 0.1985
811.50 0.1984
811.60 0.1983
811.70 0.1982
811.80 0.1981
811.90 0.1981
812.00 0.198
812.10 0.1979
812.20 0.1978
812.30 0.1977
812.40 0.1976
812.50 0.1975
812.60 0.1975
812.70 0.1974
812.80 0.1973
812.90 0.1972
813.00 0.1971
813.10 0.197
813.20 0.1969
813.30 0.1969
813.40 0.1968
813.50 0.1967
813.60 0.1966
813.70 0.1965
813.80 0.1964
813.90 0.1964
814.00 0.1963
814.10 0.1962
814.20 0.1961
814.30 0.196
814.40 0.1959
814.50 0.1958
814.60 0.1958
814.70 0.1957
814.80 0.1956
814.90 0.1955
815.00 0.1954
815.10 0.1953
815.20 0.1953
815.30 0.1952
815.40 0.1951
815.50 0.195
815.60 0.1949
815.70 0.1948
815.80 0.1948
815.90 0.1947
816.00 0.1946
816.10 0.1945
816.20 0.1944
816.30 0.1943
816.40 0.1942
816.50 0.1942
816.60 0.1941
816.70 0.194
816.80 0.1939
816.90 0.1938
817.00 0.1937
817.10 0.1937
817.20 0.1936
817.30 0.1935
817.40 0.1934
817.50 0.1933
817.60 0.1932
817.70 0.1932
817.80 0.1931
817.90 0.193
818.00 0.1929
818.10 0.1928
818.20 0.1927
818.30 0.1927
818.40 0.1926
818.50 0.1925
818.60 0.1924
818.70 0.1923
818.80 0.1922
818.90 0.1922
819.00 0.1921
819.10 0.192
819.20 0.1919
819.30 0.1918
819.40 0.1918
819.50 0.1917
819.60 0.1916
819.70 0.1915
819.80 0.1914
819.90 0.1913
820.00 0.1913
820.10 0.1912
820.20 0.1911
820.30 0.191
820.40 0.1909
820.50 0.1909
820.60 0.1908
820.70 0.1907
820.80 0.1906
820.90 0.1905
821.00 0.1904
821.10 0.1904
821.20 0.1903
821.30 0.1902
821.40 0.1901
821.50 0.19
821.60 0.19
821.70 0.1899
821.80 0.1898
821.90 0.1897
822.00 0.1896
822.10 0.1895
822.20 0.1895
822.30 0.1894
822.40 0.1893
822.50 0.1892
822.60 0.1891
822.70 0.1891
822.80 0.189
822.90 0.1889
823.00 0.1888
823.10 0.1887
823.20 0.1887
823.30 0.1886
823.40 0.1885
823.50 0.1884
823.60 0.1883
823.70 0.1883
823.80 0.1882
823.90 0.1881
824.00 0.188
824.10 0.1879
824.20 0.1879
824.30 0.1878
824.40 0.1877
824.50 0.1876
824.60 0.1875
824.70 0.1875
824.80 0.1874
824.90 0.1873
825.00 0.1872
825.10 0.1871
825.20 0.1871
825.30 0.187
825.40 0.1869
825.50 0.1868
825.60 0.1867
825.70 0.1867
825.80 0.1866
825.90 0.1865
826.00 0.1864
826.10 0.1863
826.20 0.1863
826.30 0.1862
826.40 0.1861
826.50 0.186
826.60 0.1859
826.70 0.1859
826.80 0.1858
826.90 0.1857
827.00 0.1856
827.10 0.1855
827.20 0.1855
827.30 0.1854
827.40 0.1853
827.50 0.1852
827.60 0.1852
827.70 0.1851
827.80 0.185
827.90 0.1849
828.00 0.1848
828.10 0.1848
828.20 0.1847
828.30 0.1846
828.40 0.1845
828.50 0.1844
828.60 0.1844
828.70 0.1843
828.80 0.1842
828.90 0.1841
829.00 0.1841
829.10 0.184
829.20 0.1839
829.30 0.1838
829.40 0.1837
829.50 0.1837
829.60 0.1836
829.70 0.1835
829.80 0.1834
829.90 0.1834
830.00 0.1833
830.10 0.1832
830.20 0.1831
830.30 0.183
830.40 0.183
830.50 0.1829
830.60 0.1828
830.70 0.1827
830.80 0.1827
830.90 0.1826
831.00 0.1825
831.10 0.1824
831.20 0.1823
831.30 0.1823
831.40 0.1822
831.50 0.1821
831.60 0.182
831.70 0.182
831.80 0.1819
831.90 0.1818
832.00 0.1817
832.10 0.1817
832.20 0.1816
832.30 0.1815
832.40 0.1814
832.50 0.1813
832.60 0.1813
832.70 0.1812
832.80 0.1811
832.90 0.181
833.00 0.181
833.10 0.1809
833.20 0.1808
833.30 0.1807
833.40 0.1807
833.50 0.1806
833.60 0.1805
833.70 0.1804
833.80 0.1804
833.90 0.1803
834.00 0.1802
834.10 0.1801
834.20 0.18
834.30 0.18
834.40 0.1799
834.50 0.1798
834.60 0.1797
834.70 0.1797
834.80 0.1796
834.90 0.1795
835.00 0.1794
835.10 0.1794
835.20 0.1793
835.30 0.1792
835.40 0.1791
835.50 0.1791
835.60 0.179
835.70 0.1789
835.80 0.1788
835.90 0.1788
836.00 0.1787
836.10 0.1786
836.20 0.1785
836.30 0.1785
836.40 0.1784
836.50 0.1783
836.60 0.1782
836.70 0.1782
836.80 0.1781
836.90 0.178
837.00 0.1779
837.10 0.1779
837.20 0.1778
837.30 0.1777
837.40 0.1776
837.50 0.1776
837.60 0.1775
837.70 0.1774
837.80 0.1773
837.90 0.1773
838.00 0.1772
838.10 0.1771
838.20 0.177
838.30 0.177
838.40 0.1769
838.50 0.1768
838.60 0.1767
838.70 0.1767
838.80 0.1766
838.90 0.1765
839.00 0.1764
839.10 0.1764
839.20 0.1763
839.30 0.1762
839.40 0.1761
839.50 0.1761
839.60 0.176
839.70 0.1759
839.80 0.1759
839.90 0.1758
840.00 0.1757
840.10 0.1756
840.20 0.1756
840.30 0.1755
840.40 0.1754
840.50 0.1753
840.60 0.1753
840.70 0.1752
840.80 0.1751
840.90 0.175
841.00 0.175
841.10 0.1749
841.20 0.1748
841.30 0.1748
841.40 0.1747
841.50 0.1746
841.60 0.1745
841.70 0.1745
841.80 0.1744
841.90 0.1743
842.00 0.1742
842.10 0.1742
842.20 0.1741
842.30 0.174
842.40 0.1739
842.50 0.1739
842.60 0.1738
842.70 0.1737
842.80 0.1737
842.90 0.1736
843.00 0.1735
843.10 0.1734
843.20 0.1734
843.30 0.1733
843.40 0.1732
843.50 0.1732
843.60 0.1731
843.70 0.173
843.80 0.1729
843.90 0.1729
844.00 0.1728
844.10 0.1727
844.20 0.1726
844.30 0.1726
844.40 0.1725
844.50 0.1724
844.60 0.1724
844.70 0.1723
844.80 0.1722
844.90 0.1721
845.00 0.1721
845.10 0.172
845.20 0.1719
845.30 0.1719
845.40 0.1718
845.50 0.1717
845.60 0.1716
845.70 0.1716
845.80 0.1715
845.90 0.1714
846.00 0.1714
846.10 0.1713
846.20 0.1712
846.30 0.1711
846.40 0.1711
846.50 0.171
846.60 0.1709
846.70 0.1709
846.80 0.1708
846.90 0.1707
847.00 0.1706
847.10 0.1706
847.20 0.1705
847.30 0.1704
847.40 0.1704
847.50 0.1703
847.60 0.1702
847.70 0.1702
847.80 0.1701
847.90 0.17
848.00 0.17
848.10 0.1699
848.20 0.1698
848.30 0.1698
848.40 0.1697
848.50 0.1696
848.60 0.1696
848.70 0.1695
848.80 0.1695
848.90 0.1694
849.00 0.1693
849.10 0.1693
849.20 0.1692
849.30 0.1691
849.40 0.1691
849.50 0.169
849.60 0.1689
849.70 0.1689
849.80 0.1688
849.90 0.1687
850.00 0.1687
850.10 0.1686
850.20 0.1685
850.30 0.1685
850.40 0.1684
850.50 0.1683
850.60 0.1683
850.70 0.1682
850.80 0.1681
850.90 0.1681
851.00 0.168
851.10 0.1679
851.20 0.1679
851.30 0.1678
851.40 0.1677
851.50 0.1677
851.60 0.1676
851.70 0.1676
851.80 0.1675
851.90 0.1674
852.00 0.1674
852.10 0.1673
852.20 0.1672
852.30 0.1672
852.40 0.1671
852.50 0.167
852.60 0.167
852.70 0.1669
852.80 0.1668
852.90 0.1668
853.00 0.1667
853.10 0.1667
853.20 0.1666
853.30 0.1665
853.40 0.1665
853.50 0.1664
853.60 0.1663
853.70 0.1663
853.80 0.1662
853.90 0.1661
854.00 0.1661
854.10 0.166
854.20 0.1659
854.30 0.1659
854.40 0.1658
854.50 0.1658
854.60 0.1657
854.70 0.1656
854.80 0.1656
854.90 0.1655
855.00 0.1654
855.10 0.1654
855.20 0.1653
855.30 0.1652
855.40 0.1652
855.50 0.1651
855.60 0.1651
855.70 0.165
855.80 0.1649
855.90 0.1649
856.00 0.1648
856.10 0.1647
856.20 0.1647
856.30 0.1646
856.40 0.1646
856.50 0.1645
856.60 0.1644
856.70 0.1644
856.80 0.1643
856.90 0.1642
857.00 0.1642
857.10 0.1641
857.20 0.1641
857.30 0.164
857.40 0.1639
857.50 0.1639
857.60 0.1638
857.70 0.1638
857.80 0.1637
857.90 0.1636
858.00 0.1636
858.10 0.1635
858.20 0.1635
858.30 0.1634
858.40 0.1633
858.50 0.1633
858.60 0.1632
858.70 0.1632
858.80 0.1631
858.90 0.163
859.00 0.163
859.10 0.1629
859.20 0.1629
859.30 0.1628
859.40 0.1627
859.50 0.1627
859.60 0.1626
859.70 0.1626
859.80 0.1625
859.90 0.1624
860.00 0.1624
860.10 0.1623
860.20 0.1623
860.30 0.1622
860.40 0.1621
860.50 0.1621
860.60 0.162
860.70 0.162
860.80 0.1619
860.90 0.1618
861.00 0.1618
861.10 0.1617
861.20 0.1617
861.30 0.1616
861.40 0.1616
861.50 0.1615
861.60 0.1614
861.70 0.1614
861.80 0.1613
861.90 0.1613
862.00 0.1612
862.10 0.1611
862.20 0.1611
862.30 0.161
862.40 0.161
862.50 0.1609
862.60 0.1608
862.70 0.1608
862.80 0.1607
862.90 0.1607
863.00 0.1606
863.10 0.1605
863.20 0.1605
863.30 0.1604
863.40 0.1604
863.50 0.1603
863.60 0.1602
863.70 0.1602
863.80 0.1601
863.90 0.1601
864.00 0.16
864.10 0.16
864.20 0.1599
864.30 0.1598
864.40 0.1598
864.50 0.1597
864.60 0.1597
864.70 0.1596
864.80 0.1595
864.90 0.1595
865.00 0.1594
865.10 0.1594
865.20 0.1593
865.30 0.1592
865.40 0.1592
865.50 0.1591
865.60 0.1591
865.70 0.159
865.80 0.159
865.90 0.1589
866.00 0.1588
866.10 0.1588
866.20 0.1587
866.30 0.1587
866.40 0.1586
866.50 0.1585
866.60 0.1585
866.70 0.1584
866.80 0.1584
866.90 0.1583
867.00 0.1582
867.10 0.1582
867.20 0.1582
867.30 0.1581
867.40 0.1581
867.50 0.158
867.60 0.158
867.70 0.1579
867.80 0.1579
867.90 0.1578
868.00 0.1578
868.10 0.1577
868.20 0.1577
868.30 0.1576
868.40 0.1576
868.50 0.1575
868.60 0.1575
868.70 0.1574
868.80 0.1574
868.90 0.1573
869.00 0.1573
869.10 0.1572
869.20 0.1572
869.30 0.1572
869.40 0.1571
869.50 0.1571
869.60 0.157
869.70 0.157
869.80 0.1569
869.90 0.1569
870.00 0.1568
870.10 0.1568
870.20 0.1567
870.30 0.1567
870.40 0.1566
870.50 0.1566
870.60 0.1565
870.70 0.1565
870.80 0.1564
870.90 0.1564
871.00 0.1563
871.10 0.1563
871.20 0.1563
871.30 0.1562
871.40 0.1562
871.50 0.1561
871.60 0.1561
871.70 0.156
871.80 0.156
871.90 0.1559
872.00 0.1559
872.10 0.1558
872.20 0.1558
872.30 0.1557
872.40 0.1557
872.50 0.1556
872.60 0.1556
872.70 0.1555
872.80 0.1554
872.90 0.1554
873.00 0.1553
873.10 0.1553
873.20 0.1552
873.30 0.1552
873.40 0.1551
873.50 0.1551
873.60 0.155
873.70 0.155
873.80 0.1549
873.90 0.1549
874.00 0.1548
874.10 0.1548
874.20 0.1547
874.30 0.1547
874.40 0.1546
874.50 0.1545
874.60 0.1545
874.70 0.1544
874.80 0.1544
874.90 0.1543
875.00 0.1543
875.10 0.1542
875.20 0.1542
875.30 0.1541
875.40 0.1541
875.50 0.154
875.60 0.154
875.70 0.1539
875.80 0.1539
875.90 0.1538
876.00 0.1538
876.10 0.1537
876.20 0.1537
876.30 0.1536
876.40 0.1536
876.50 0.1535
876.60 0.1534
876.70 0.1534
876.80 0.1533
876.90 0.1533
877.00 0.1532
877.10 0.1532
877.20 0.1532
877.30 0.1531
877.40 0.1531
877.50 0.153
877.60 0.153
877.70 0.153
877.80 0.1529
877.90 0.1529
878.00 0.1528
878.10 0.1528
878.20 0.1528
878.30 0.1527
878.40 0.1527
878.50 0.1526
878.60 0.1526
878.70 0.1526
878.80 0.1525
878.90 0.1525
879.00 0.1524
879.10 0.1524
879.20 0.1524
879.30 0.1523
879.40 0.1523
879.50 0.1522
879.60 0.1522
879.70 0.1522
879.80 0.1521
879.90 0.1521
880.00 0.152
880.10 0.152
880.20 0.1519
880.30 0.1519
880.40 0.1519
880.50 0.1518
880.60 0.1518
880.70 0.1518
880.80 0.1517
880.90 0.1517
881.00 0.1516
881.10 0.1516
881.20 0.1516
881.30 0.1515
881.40 0.1515
881.50 0.1514
881.60 0.1514
881.70 0.1514
881.80 0.1513
881.90 0.1513
882.00 0.1512
882.10 0.1511
882.20 0.1511
882.30 0.151
882.40 0.1509
882.50 0.1508
882.60 0.1507
882.70 0.1506
882.80 0.1506
882.90 0.1505
883.00 0.1504
883.10 0.1503
883.20 0.1502
883.30 0.1501
883.40 0.15
883.50 0.15
883.60 0.1499
883.70 0.1498
883.80 0.1497
883.90 0.1496
884.00 0.1495
884.10 0.1494
884.20 0.1494
884.30 0.1493
884.40 0.1492
884.50 0.1491
884.60 0.149
884.70 0.1489
884.80 0.1489
884.90 0.1488
885.00 0.1487
885.10 0.1486
885.20 0.1485
885.30 0.1484
885.40 0.1484
885.50 0.1483
885.60 0.1482
885.70 0.1481
885.80 0.148
885.90 0.1479
886.00 0.1478
886.10 0.1478
886.20 0.1477
886.30 0.1476
886.40 0.1475
886.50 0.1474
886.60 0.1473
886.70 0.1473
886.80 0.1472
886.90 0.1471
887.00 0.147
887.10 0.147
887.20 0.147
887.30 0.147
887.40 0.147
887.50 0.147
887.60 0.147
887.70 0.147
887.80 0.147
887.90 0.147
888.00 0.147
888.10 0.147
888.20 0.147
888.30 0.147
888.40 0.147
888.50 0.147
888.60 0.1469
888.70 0.1469
888.80 0.1469
888.90 0.1469
889.00 0.1469
889.10 0.1469
889.20 0.1469
889.30 0.1469
889.40 0.1469
889.50 0.1469
889.60 0.1469
889.70 0.1469
889.80 0.1469
889.90 0.1469
890.00 0.1469
890.10 0.1469
890.20 0.1469
890.30 0.1469
890.40 0.1469
890.50 0.1469
890.60 0.1469
890.70 0.1469
890.80 0.1469
890.90 0.1469
891.00 0.1469
891.10 0.1469
891.20 0.1468
891.30 0.1468
891.40 0.1468
891.50 0.1468
891.60 0.1468
891.70 0.1468
891.80 0.1468
891.90 0.1468
892.00 0.1468
892.10 0.1468
892.20 0.1467
892.30 0.1467
892.40 0.1466
892.50 0.1466
892.60 0.1465
892.70 0.1465
892.80 0.1464
892.90 0.1464
893.00 0.1463
893.10 0.1463
893.20 0.1462
893.30 0.1462
893.40 0.1461
893.50 0.1461
893.60 0.146
893.70 0.146
893.80 0.1459
893.90 0.1459
894.00 0.1458
894.10 0.1458
894.20 0.1457
894.30 0.1457
894.40 0.1456
894.50 0.1456
894.60 0.1455
894.70 0.1455
894.80 0.1454
894.90 0.1454
895.00 0.1453
895.10 0.1453
895.20 0.1452
895.30 0.1452
895.40 0.1451
895.50 0.1451
895.60 0.145
895.70 0.145
895.80 0.1449
895.90 0.1449
896.00 0.1448
896.10 0.1448
896.20 0.1447
896.30 0.1447
896.40 0.1446
896.50 0.1446
896.60 0.1445
896.70 0.1445
896.80 0.1444
896.90 0.1444
897.00 0.1443
897.10 0.1442
897.20 0.144
897.30 0.1438
897.40 0.1437
897.50 0.1435
897.60 0.1433
897.70 0.1432
897.80 0.143
897.90 0.1428
898.00 0.1427
898.10 0.1425
898.20 0.1423
898.30 0.1422
898.40 0.142
898.50 0.1419
898.60 0.1417
898.70 0.1415
898.80 0.1414
898.90 0.1412
899.00 0.141
899.10 0.1409
899.20 0.1407
899.30 0.1405
899.40 0.1404
899.50 0.1402
899.60 0.14
899.70 0.1399
899.80 0.1397
899.90 0.1396
900.00 0.1394
900.10 0.1392
900.20 0.1391
900.30 0.1389
900.40 0.1387
900.50 0.1386
900.60 0.1384
900.70 0.1382
900.80 0.1381
900.90 0.1379
901.00 0.1378
901.10 0.1376
901.20 0.1374
901.30 0.1373
901.40 0.1371
901.50 0.1369
901.60 0.1368
901.70 0.1366
901.80 0.1365
901.90 0.1363
902.00 0.1361
902.10 0.1362
902.20 0.1362
902.30 0.1363
902.40 0.1363
902.50 0.1364
902.60 0.1364
902.70 0.1365
902.80 0.1365
902.90 0.1366
903.00 0.1366
903.10 0.1367
903.20 0.1367
903.30 0.1367
903.40 0.1368
903.50 0.1368
903.60 0.1369
903.70 0.1369
903.80 0.137
903.90 0.137
904.00 0.1371
904.10 0.1371
904.20 0.1372
904.30 0.1372
904.40 0.1373
904.50 0.1373
904.60 0.1374
904.70 0.1374
904.80 0.1374
904.90 0.1375
905.00 0.1375
905.10 0.1376
905.20 0.1376
905.30 0.1377
905.40 0.1377
905.50 0.1378
905.60 0.1378
905.70 0.1379
905.80 0.1379
905.90 0.138
906.00 0.138
906.10 0.1381
906.20 0.1381
906.30 0.1381
906.40 0.1382
906.50 0.1382
906.60 0.1383
906.70 0.1383
906.80 0.1384
906.90 0.1384
907.00 0.1385
907.10 0.1385
907.20 0.1384
907.30 0.1384
907.40 0.1384
907.50 0.1384
907.60 0.1384
907.70 0.1384
907.80 0.1384
907.90 0.1384
908.00 0.1383
908.10 0.1383
908.20 0.1383
908.30 0.1383
908.40 0.1383
908.50 0.1383
908.60 0.1383
908.70 0.1383
908.80 0.1382
908.90 0.1382
909.00 0.1382
909.10 0.1382
909.20 0.1382
909.30 0.1382
909.40 0.1382
909.50 0.1382
909.60 0.1381
909.70 0.1381
909.80 0.1381
909.90 0.1381
910.00 0.1381
910.10 0.1381
910.20 0.1381
910.30 0.1381
910.40 0.138
910.50 0.138
910.60 0.138
910.70 0.138
910.80 0.138
910.90 0.138
911.00 0.138
911.10 0.138
911.20 0.1379
911.30 0.1379
911.40 0.1379
911.50 0.1379
911.60 0.1379
911.70 0.1379
911.80 0.1379
911.90 0.1378
912.00 0.1378
912.10 0.1377
912.20 0.1376
912.30 0.1376
912.40 0.1375
912.50 0.1374
912.60 0.1373
912.70 0.1372
912.80 0.1371
912.90 0.137
913.00 0.1369
913.10 0.1368
913.20 0.1367
913.30 0.1366
913.40 0.1365
913.50 0.1364
913.60 0.1363
913.70 0.1363
913.80 0.1362
913.90 0.1361
914.00 0.136
914.10 0.1359
914.20 0.1358
914.30 0.1357
914.40 0.1356
914.50 0.1355
914.60 0.1354
914.70 0.1353
914.80 0.1352
914.90 0.1351
915.00 0.135
915.10 0.135
915.20 0.1349
915.30 0.1348
915.40 0.1347
915.50 0.1346
915.60 0.1345
915.70 0.1344
915.80 0.1343
915.90 0.1342
916.00 0.1341
916.10 0.134
916.20 0.1339
916.30 0.1338
916.40 0.1338
916.50 0.1337
916.60 0.1336
916.70 0.1335
916.80 0.1334
916.90 0.1333
917.00 0.1332
917.10 0.133
917.20 0.1328
917.30 0.1326
917.40 0.1324
917.50 0.1322
917.60 0.132
917.70 0.1318
917.80 0.1316
917.90 0.1314
918.00 0.1312
918.10 0.131
918.20 0.1308
918.30 0.1306
918.40 0.1304
918.50 0.1302
918.60 0.13
918.70 0.1298
918.80 0.1296
918.90 0.1294
919.00 0.1292
919.10 0.129
919.20 0.1288
919.30 0.1286
919.40 0.1284
919.50 0.1282
919.60 0.128
919.70 0.1278
919.80 0.1276
919.90 0.1274
920.00 0.1272
920.10 0.127
920.20 0.1268
920.30 0.1266
920.40 0.1264
920.50 0.1262
920.60 0.126
920.70 0.1258
920.80 0.1257
920.90 0.1255
921.00 0.1253
921.10 0.1251
921.20 0.1249
921.30 0.1247
921.40 0.1245
921.50 0.1243
921.60 0.1241
921.70 0.1239
921.80 0.1237
921.90 0.1235
922.00 0.1233
922.10 0.1232
922.20 0.1232
922.30 0.1231
922.40 0.123
922.50 0.123
922.60 0.1229
922.70 0.1229
922.80 0.1228
922.90 0.1227
923.00 0.1227
923.10 0.1226
923.20 0.1226
923.30 0.1225
923.40 0.1224
923.50 0.1224
923.60 0.1223
923.70 0.1222
923.80 0.1222
923.90 0.1221
924.00 0.1221
924.10 0.122
924.20 0.1219
924.30 0.1219
924.40 0.1218
924.50 0.1218
924.60 0.1217
924.70 0.1216
924.80 0.1216
924.90 0.1215
925.00 0.1214
925.10 0.1214
925.20 0.1213
925.30 0.1213
925.40 0.1212
925.50 0.1211
925.60 0.1211
925.70 0.121
925.80 0.121
925.90 0.1209
926.00 0.1208
926.10 0.1208
926.20 0.1207
926.30 0.1207
926.40 0.1206
926.50 0.1205
926.60 0.1205
926.70 0.1204
926.80 0.1203
926.90 0.1203
927.00 0.1202
927.10 0.1203
927.20 0.1204
927.30 0.1205
927.40 0.1206
927.50 0.1207
927.60 0.1208
927.70 0.1209
927.80 0.121
927.90 0.1211
928.00 0.1212
928.10 0.1213
928.20 0.1214
928.30 0.1215
928.40 0.1216
928.50 0.1217
928.60 0.1218
928.70 0.1219
928.80 0.122
928.90 0.1221
929.00 0.1222
929.10 0.1223
929.20 0.1224
929.30 0.1224
929.40 0.1225
929.50 0.1226
929.60 0.1227
929.70 0.1228
929.80 0.1229
929.90 0.123
930.00 0.1231
930.10 0.1232
930.20 0.1233
930.30 0.1234
930.40 0.1235
930.50 0.1236
930.60 0.1237
930.70 0.1238
930.80 0.1239
930.90 0.124
931.00 0.1241
931.10 0.1242
931.20 0.1243
931.30 0.1244
931.40 0.1245
931.50 0.1245
931.60 0.1246
931.70 0.1247
931.80 0.1248
931.90 0.1249
932.00 0.125
932.10 0.125
932.20 0.1251
932.30 0.1251
932.40 0.1251
932.50 0.1252
932.60 0.1252
932.70 0.1252
932.80 0.1252
932.90 0.1253
933.00 0.1253
933.10 0.1253
933.20 0.1253
933.30 0.1254
933.40 0.1254
933.50 0.1254
933.60 0.1254
933.70 0.1255
933.80 0.1255
933.90 0.1255
934.00 0.1255
934.10 0.1256
934.20 0.1256
934.30 0.1256
934.40 0.1256
934.50 0.1256
934.60 0.1256
934.70 0.1256
934.80 0.1256
934.90 0.1256
935.00 0.1255
935.10 0.1255
935.20 0.1255
935.30 0.1255
935.40 0.1255
935.50 0.1255
935.60 0.1255
935.70 0.1255
935.80 0.1255
935.90 0.1254
936.00 0.1254
936.10 0.1254
936.20 0.1254
936.30 0.1254
936.40 0.1254
936.50 0.1254
936.60 0.1254
936.70 0.1254
936.80 0.1253
936.90 0.1253
937.00 0.1253
937.10 0.1253
937.20 0.1252
937.30 0.1252
937.40 0.1252
937.50 0.1251
937.60 0.1251
937.70 0.1251
937.80 0.125
937.90 0.125
938.00 0.125
938.10 0.1249
938.20 0.1249
938.30 0.1248
938.40 0.1248
938.50 0.1247
938.60 0.1247
938.70 0.1246
938.80 0.1246
938.90 0.1245
939.00 0.1244
939.10 0.1244
939.20 0.1243
939.30 0.1243
939.40 0.1242
939.50 0.1242
939.60 0.1241
939.70 0.124
939.80 0.124
939.90 0.1239
940.00 0.1239
940.10 0.1238
940.20 0.1237
940.30 0.1237
940.40 0.1236
940.50 0.1235
940.60 0.1234
940.70 0.1234
940.80 0.1233
940.90 0.1232
941.00 0.1231
941.10 0.123
941.20 0.1229
941.30 0.1228
941.40 0.1228
941.50 0.1227
941.60 0.1226
941.70 0.1225
941.80 0.1224
941.90 0.1223
942.00 0.1223
942.10 0.1222
942.20 0.122
942.30 0.1219
942.40 0.1218
942.50 0.1217
942.60 0.1216
942.70 0.1214
942.80 0.1213
942.90 0.1212
943.00 0.1211
943.10 0.1209
943.20 0.1208
943.30 0.1207
943.40 0.1206
943.50 0.1204
943.60 0.1203
943.70 0.1202
943.80 0.1201
943.90 0.1199
944.00 0.1198
944.10 0.1197
944.20 0.1196
944.30 0.1194
944.40 0.1193
944.50 0.1191
944.60 0.1189
944.70 0.1188
944.80 0.1186
944.90 0.1185
945.00 0.1183
945.10 0.1181
945.20 0.118
945.30 0.1178
945.40 0.1176
945.50 0.1174
945.60 0.1172
945.70 0.117
945.80 0.1168
945.90 0.1166
946.00 0.1164
946.10 0.1162
946.20 0.116
946.30 0.1158
946.40 0.1156
946.50 0.1154
946.60 0.1152
946.70 0.115
946.80 0.1148
946.90 0.1146
947.00 0.1144
947.10 0.1142
947.20 0.114
947.30 0.1137
947.40 0.1135
947.50 0.1132
947.60 0.113
947.70 0.1127
947.80 0.1124
947.90 0.1122
948.00 0.1119
948.10 0.1117
948.20 0.1114
948.30 0.1112
948.40 0.1109
948.50 0.1106
948.60 0.1104
948.70 0.1101
948.80 0.1099
948.90 0.1096
949.00 0.1094
949.10 0.1091
949.20 0.1089
949.30 0.1086
949.40 0.1083
949.50 0.108
949.60 0.1078
949.70 0.1075
949.80 0.1072
949.90 0.1069
950.00 0.1066
950.10 0.1064
950.20 0.1061
950.30 0.1058
950.40 0.1055
950.50 0.1052
950.60 0.105
950.70 0.1047
950.80 0.1044
950.90 0.1041
951.00 0.1038
951.10 0.1036
951.20 0.1033
951.30 0.103
951.40 0.1027
951.50 0.1025
951.60 0.1022
951.70 0.102
951.80 0.1017
951.90 0.1014
952.00 0.1012
952.10 0.101
952.20 0.1007
952.30 0.1005
952.40 0.1003
952.50 0.1001
952.60 0.09988
952.70 0.09967
952.80 0.09945
952.90 0.09935
953.00 0.09924
953.10 0.09914
953.20 0.09903
953.30 0.09893
953.40 0.09882
953.50 0.09872
953.60 0.09904
953.70 0.09936
953.80 0.09968
953.90 0.1
954.00 0.1007
954.10 0.1014
954.20 0.1024
954.30 0.102
954.40 0.1003
954.50 0.09936
954.60 0.09868
954.70 0.09801
954.80 0.09773
954.90 0.09744
955.00 0.09715
955.10 0.09687
955.20 0.09687
955.30 0.09687
955.40 0.09687
955.50 0.09687
955.60 0.09687
955.70 0.09687
955.80 0.09687
955.90 0.09701
956.00 0.09715
956.10 0.09729
956.20 0.09742
956.30 0.09756
956.40 0.0977
956.50 0.09784
956.60 0.09798
956.70 0.09811
956.80 0.09825
956.90 0.09839
957.00 0.09853
957.10 0.09869
957.20 0.09885
957.30 0.09902
957.40 0.09918
957.50 0.09934
957.60 0.09951
957.70 0.09967
957.80 0.09984
957.90 0.1
958.00 0.1002
958.10 0.1003
958.20 0.1005
958.30 0.1007
958.40 0.1008
958.50 0.101
958.60 0.1011
958.70 0.1013
958.80 0.1015
958.90 0.1016
959.00 0.1018
959.10 0.102
959.20 0.1021
959.30 0.1023
959.40 0.1024
959.50 0.1026
959.60 0.1027
959.70 0.1028
959.80 0.103
959.90 0.1031
960.00 0.1032
960.10 0.1034
960.20 0.1035
960.30 0.1037
960.40 0.1038
960.50 0.1039
960.60 0.1041
960.70 0.1042
960.80 0.1043
960.90 0.1045
961.00 0.1046
961.10 0.1047
961.20 0.1049
961.30 0.105
961.40 0.1051
961.50 0.1052
961.60 0.1054
961.70 0.1055
961.80 0.1056
961.90 0.1057
962.00 0.1058
962.10 0.1059
962.20 0.106
962.30 0.1061
962.40 0.1062
962.50 0.1063
962.60 0.1064
962.70 0.1065
962.80 0.1066
962.90 0.1067
963.00 0.1068
963.10 0.1069
963.20 0.107
963.30 0.1071
963.40 0.1072
963.50 0.1072
963.60 0.1073
963.70 0.1074
963.80 0.1075
963.90 0.1075
964.00 0.1076
964.10 0.1077
964.20 0.1078
964.30 0.1079
964.40 0.1079
964.50 0.108
964.60 0.108
964.70 0.1081
964.80 0.1082
964.90 0.1082
965.00 0.1083
965.10 0.1083
965.20 0.1084
965.30 0.1084
965.40 0.1085
965.50 0.1086
965.60 0.1086
965.70 0.1087
965.80 0.1087
965.90 0.1088
966.00 0.1088
966.10 0.1089
966.20 0.109
966.30 0.109
966.40 0.1091
966.50 0.1091
966.60 0.1091
966.70 0.1092
966.80 0.1092
966.90 0.1093
967.00 0.1093
967.10 0.1093
967.20 0.1094
967.30 0.1094
967.40 0.1094
967.50 0.1095
967.60 0.1095
967.70 0.1095
967.80 0.1096
967.90 0.1096
968.00 0.1096
968.10 0.1097
968.20 0.1097
968.30 0.1097
968.40 0.1097
968.50 0.1097
968.60 0.1098
968.70 0.1098
968.80 0.1098
968.90 0.1098
969.00 0.1098
969.10 0.1098
969.20 0.1098
969.30 0.1099
969.40 0.1099
969.50 0.1099
969.60 0.1099
969.70 0.1099
969.80 0.1099
969.90 0.11
970.00 0.11
970.10 0.11
970.20 0.11
970.30 0.11
970.40 0.11
970.50 0.11
970.60 0.11
970.70 0.11
970.80 0.11
970.90 0.11
971.00 0.11
971.10 0.11
971.20 0.11
971.30 0.11
971.40 0.11
971.50 0.11
971.60 0.11
971.70 0.11
971.80 0.11
971.90 0.11
972.00 0.11
972.10 0.11
972.20 0.11
972.30 0.11
972.40 0.11
972.50 0.11
972.60 0.11
972.70 0.1099
972.80 0.1099
972.90 0.1099
973.00 0.1099
973.10 0.1099
973.20 0.1099
973.30 0.1099
973.40 0.1099
973.50 0.1098
973.60 0.1098
973.70 0.1098
973.80 0.1098
973.90 0.1098
974.00 0.1098
974.10 0.1098
974.20 0.1098
974.30 0.1097
974.40 0.1097
974.50 0.1097
974.60 0.1097
974.70 0.1096
974.80 0.1096
974.90 0.1096
975.00 0.1096
975.10 0.1095
975.20 0.1095
975.30 0.1095
975.40 0.1095
975.50 0.1094
975.60 0.1094
975.70 0.1094
975.80 0.1094
975.90 0.1093
976.00 0.1093
976.10 0.1093
976.20 0.1093
976.30 0.1092
976.40 0.1092
976.50 0.1092
976.60 0.1092
976.70 0.1091
976.80 0.1091
976.90 0.1091
977.00 0.1091
977.10 0.109
977.20 0.109
977.30 0.1089
977.40 0.1089
977.50 0.1088
977.60 0.1088
977.70 0.1088
977.80 0.1087
977.90 0.1087
978.00 0.1086
978.10 0.1086
978.20 0.1085
978.30 0.1085
978.40 0.1085
978.50 0.1084
978.60 0.1084
978.70 0.1083
978.80 0.1083
978.90 0.1082
979.00 0.1082
979.10 0.1082
979.20 0.1081
979.30 0.1081
979.40 0.108
979.50 0.108
979.60 0.1079
979.70 0.1079
979.80 0.1079
979.90 0.1078
980.00 0.1078
980.10 0.1077
980.20 0.1077
980.30 0.1076
980.40 0.1076
980.50 0.1076
980.60 0.1075
980.70 0.1075
980.80 0.1074
980.90 0.1074
981.00 0.1073
981.10 0.1073
981.20 0.1073
981.30 0.1072
981.40 0.1072
981.50 0.1071
981.60 0.1071
981.70 0.107
981.80 0.107
981.90 0.107
982.00 0.1069
982.10 0.1068
982.20 0.1068
982.30 0.1067
982.40 0.1067
982.50 0.1066
982.60 0.1065
982.70 0.1065
982.80 0.1064
982.90 0.1064
983.00 0.1063
983.10 0.1062
983.20 0.1062
983.30 0.1061
983.40 0.1061
983.50 0.106
983.60 0.1059
983.70 0.1059
983.80 0.1058
983.90 0.1058
984.00 0.1057
984.10 0.1056
984.20 0.1056
984.30 0.1055
984.40 0.1055
984.50 0.1054
984.60 0.1053
984.70 0.1053
984.80 0.1052
984.90 0.1051
985.00 0.105
985.10 0.105
985.20 0.1049
985.30 0.1048
985.40 0.1047
985.50 0.1047
985.60 0.1046
985.70 0.1045
985.80 0.1044
985.90 0.1044
986.00 0.1043
986.10 0.1042
986.20 0.1041
986.30 0.1041
986.40 0.104
986.50 0.1039
986.60 0.1038
986.70 0.1038
986.80 0.1037
986.90 0.1036
987.00 0.1035
987.10 0.1035
987.20 0.1034
987.30 0.1033
987.40 0.1032
987.50 0.1031
987.60 0.103
987.70 0.1029
987.80 0.1028
987.90 0.1028
988.00 0.1027
988.10 0.1026
988.20 0.1025
988.30 0.1024
988.40 0.1023
988.50 0.1022
988.60 0.1021
988.70 0.102
988.80 0.1019
988.90 0.1018
989.00 0.1017
989.10 0.1016
989.20 0.1015
989.30 0.1014
989.40 0.1013
989.50 0.1012
989.60 0.1011
989.70 0.101
989.80 0.1009
989.90 0.1008
990.00 0.1007
990.10 0.1006
990.20 0.1005
990.30 0.1004
990.40 0.1003
990.50 0.1002
990.60 0.1001
990.70 0.1
990.80 0.0999
990.90 0.09978
991.00 0.09966
991.10 0.09955
991.20 0.09943
991.30 0.09932
991.40 0.0992
991.50 0.09908
991.60 0.09897
991.70 0.09885
991.80 0.09874
991.90 0.09862
992.00 0.0985
992.10 0.09838
992.20 0.09825
992.30 0.09813
992.40 0.098
992.50 0.09787
992.60 0.09775
992.70 0.09761
992.80 0.09747
992.90 0.09733
993.00 0.09719
993.10 0.09705
993.20 0.09691
993.30 0.09677
993.40 0.09663
993.50 0.09649
993.60 0.09635
993.70 0.09621
993.80 0.09607
993.90 0.09593
994.00 0.09579
994.10 0.09565
994.20 0.09552
994.30 0.09538
994.40 0.09524
994.50 0.0951
994.60 0.09496
994.70 0.0948
994.80 0.09465
994.90 0.09449
995.00 0.09433
995.10 0.09417
995.20 0.09402
995.30 0.09386
995.40 0.0937
995.50 0.09354
995.60 0.09339
995.70 0.09322
995.80 0.09304
995.90 0.09287
996.00 0.0927
996.10 0.09252
996.20 0.09235
996.30 0.09218
996.40 0.092
996.50 0.09183
996.60 0.09166
996.70 0.09148
996.80 0.09131
996.90 0.09114
997.00 0.09097
997.10 0.09078
997.20 0.09059
997.30 0.0904
997.40 0.09022
997.50 0.09003
997.60 0.08984
997.70 0.08964
997.80 0.08943
997.90 0.08923
998.00 0.08902
998.10 0.08881
998.20 0.08861
998.30 0.0884
998.40 0.0882
998.50 0.08799
998.60 0.08778
998.70 0.08758
998.80 0.08737
998.90 0.08716
999.00 0.08696
999.10 0.08675
999.20 0.08655
999.30 0.08634
999.40 0.08614
999.50 0.08593
999.60 0.08573
999.70 0.0855
999.80 0.08527
999.90 0.08503
1000.00 0.0848
1000.10 0.08457
1000.20 0.08433
1000.30 0.0841
1000.40 0.08387
1000.50 0.08364
1000.60 0.0834
1000.70 0.08317
1000.80 0.08294
1000.90 0.08271
1001.00 0.08247
1001.10 0.08224
1001.20 0.08201
1001.30 0.08178
1001.40 0.08155
1001.50 0.08131
1001.60 0.08108
1001.70 0.08084
1001.80 0.0806
1001.90 0.08036
1002.00 0.08012
1002.10 0.07988
1002.20 0.07964
1002.30 0.0794
1002.40 0.07916
1002.50 0.07892
1002.60 0.07868
1002.70 0.07844
1002.80 0.0782
1002.90 0.07796
1003.00 0.07772
1003.10 0.07748
1003.20 0.07727
1003.30 0.07706
1003.40 0.07685
1003.50 0.07664
1003.60 0.07643
1003.70 0.07623
1003.80 0.07602
1003.90 0.0759
1004.00 0.0758
1004.10 0.07571
1004.20 0.07562
1004.30 0.07577
1004.40 0.07601
1004.50 0.0765
1004.60 0.07731
1004.70 0.07686
1004.80 0.07606
1004.90 0.07576
1005.00 0.07548
1005.10 0.07544
1005.20 0.07549
1005.30 0.07553
1005.40 0.07558
1005.50 0.07571
1005.60 0.07587
1005.70 0.07602
1005.80 0.07618
1005.90 0.07634
1006.00 0.07649
1006.10 0.07665
1006.20 0.07683
1006.30 0.07701
1006.40 0.0772
1006.50 0.07738
1006.60 0.07757
1006.70 0.07775
1006.80 0.07793
1006.90 0.07812
1007.00 0.0783
1007.10 0.07849
1007.20 0.07867
1007.30 0.07886
1007.40 0.07904
1007.50 0.07923
1007.60 0.07941
1007.70 0.07959
1007.80 0.07976
1007.90 0.07993
1008.00 0.0801
1008.10 0.08028
1008.20 0.08045
1008.30 0.08062
1008.40 0.08079
1008.50 0.08096
1008.60 0.08113
1008.70 0.0813
1008.80 0.08147
1008.90 0.08164
1009.00 0.08181
1009.10 0.08198
1009.20 0.08215
1009.30 0.08232
1009.40 0.0825
1009.50 0.08267
1009.60 0.08284
1009.70 0.08298
1009.80 0.08312
1009.90 0.08326
1010.00 0.0834
1010.10 0.08354
1010.20 0.08368
1010.30 0.08382
1010.40 0.08396
1010.50 0.0841
1010.60 0.08424
1010.70 0.08438
1010.80 0.08452
1010.90 0.08466
1011.00 0.0848
1011.10 0.08494
1011.20 0.08508
1011.30 0.08522
1011.40 0.08536
1011.50 0.08549
1011.60 0.08563
1011.70 0.08576
1011.80 0.08588
1011.90 0.086
1012.00 0.08612
1012.10 0.08622
1012.20 0.08633
1012.30 0.08643
1012.40 0.08654
1012.50 0.08664
1012.60 0.08675
1012.70 0.08685
1012.80 0.08696
1012.90 0.08706
1013.00 0.08717
1013.10 0.08727
1013.20 0.08738
1013.30 0.08748
1013.40 0.08758
1013.50 0.08769
1013.60 0.08779
1013.70 0.08788
1013.80 0.08797
1013.90 0.08806
1014.00 0.08814
1014.10 0.08823
1014.20 0.08832
1014.30 0.0884
1014.40 0.08849
1014.50 0.08857
1014.60 0.08866
1014.70 0.08873
1014.80 0.0888
1014.90 0.08887
1015.00 0.08894
1015.10 0.089
1015.20 0.08907
1015.30 0.08914
1015.40 0.08921
1015.50 0.08928
1015.60 0.08934
1015.70 0.08941
1015.80 0.08948
1015.90 0.08955
1016.00 0.08961
1016.10 0.08968
1016.20 0.08975
1016.30 0.08982
1016.40 0.08988
1016.50 0.08995
1016.60 0.09002
1016.70 0.09008
1016.80 0.09013
1016.90 0.09019
1017.00 0.09024
1017.10 0.09029
1017.20 0.09033
1017.30 0.09038
1017.40 0.09042
1017.50 0.09047
1017.60 0.09051
1017.70 0.09056
1017.80 0.0906
1017.90 0.09065
1018.00 0.09069
1018.10 0.09073
1018.20 0.09078
1018.30 0.09082
1018.40 0.09087
1018.50 0.09091
1018.60 0.09096
1018.70 0.09099
1018.80 0.09102
1018.90 0.09105
1019.00 0.09108
1019.10 0.09111
1019.20 0.09114
1019.30 0.09117
1019.40 0.0912
1019.50 0.09123
1019.60 0.09126
1019.70 0.09129
1019.80 0.09132
1019.90 0.09135
1020.00 0.09138
1020.10 0.09142
1020.20 0.09145
1020.30 0.09148
1020.40 0.09151
1020.50 0.09154
1020.60 0.09157
1020.70 0.09159
1020.80 0.0916
1020.90 0.09162
1021.00 0.09164
1021.10 0.09166
1021.20 0.09168
1021.30 0.09169
1021.40 0.09171
1021.50 0.09173
1021.60 0.09175
1021.70 0.09177
1021.80 0.09178
1021.90 0.0918
1022.00 0.09182
1022.10 0.09183
1022.20 0.09183
1022.30 0.09184
1022.40 0.09185
1022.50 0.09186
1022.60 0.09186
1022.70 0.09187
1022.80 0.09188
1022.90 0.09189
1023.00 0.09189
1023.10 0.0919
1023.20 0.09191
1023.30 0.09192
1023.40 0.09192
1023.50 0.09193
1023.60 0.09194
1023.70 0.09194
1023.80 0.09195
1023.90 0.09196
1024.00 0.09197
1024.10 0.09197
1024.20 0.09198
1024.30 0.09199
1024.40 0.092
1024.50 0.092
1024.60 0.09201
1024.70 0.09201
1024.80 0.09201
1024.90 0.092
1025.00 0.092
1025.10 0.092
1025.20 0.092
1025.30 0.09199
1025.40 0.09199
1025.50 0.09199
1025.60 0.09198
1025.70 0.09198
1025.80 0.09198
1025.90 0.09197
1026.00 0.09197
1026.10 0.09197
1026.20 0.09196
1026.30 0.09196
1026.40 0.09196
1026.50 0.09195
1026.60 0.09195
1026.70 0.09195
1026.80 0.09195
1026.90 0.09194
1027.00 0.09194
1027.10 0.09193
1027.20 0.09191
1027.30 0.0919
1027.40 0.09189
1027.50 0.09187
1027.60 0.09186
1027.70 0.09185
1027.80 0.09183
1027.90 0.09182
1028.00 0.09181
1028.10 0.09179
1028.20 0.09178
1028.30 0.09176
1028.40 0.09175
1028.50 0.09174
1028.60 0.09172
1028.70 0.09171
1028.80 0.0917
1028.90 0.09168
1029.00 0.09167
1029.10 0.09166
1029.20 0.09164
1029.30 0.09163
1029.40 0.09162
1029.50 0.0916
1029.60 0.09159
1029.70 0.09158
1029.80 0.09156
1029.90 0.09155
1030.00 0.09154
1030.10 0.09152
1030.20 0.09151
1030.30 0.0915
1030.40 0.09148
1030.50 0.09147
1030.60 0.09146
1030.70 0.09144
1030.80 0.09143
1030.90 0.09142
1031.00 0.0914
1031.10 0.09139
1031.20 0.09138
1031.30 0.09136
1031.40 0.09135
1031.50 0.09134
1031.60 0.09133
1031.70 0.09131
1031.80 0.0913
1031.90 0.09129
1032.00 0.09127
1032.10 0.09125
1032.20 0.09123
1032.30 0.09121
1032.40 0.09119
1032.50 0.09116
1032.60 0.09114
1032.70 0.09112
1032.80 0.0911
1032.90 0.09108
1033.00 0.09105
1033.10 0.09103
1033.20 0.09101
1033.30 0.09099
1033.40 0.09097
1033.50 0.09095
1033.60 0.09092
1033.70 0.0909
1033.80 0.09088
1033.90 0.09086
1034.00 0.09084
1034.10 0.09082
1034.20 0.0908
1034.30 0.09077
1034.40 0.09075
1034.50 0.09073
1034.60 0.09071
1034.70 0.09069
1034.80 0.09067
1034.90 0.09064
1035.00 0.09062
1035.10 0.0906
1035.20 0.09058
1035.30 0.09056
1035.40 0.09054
1035.50 0.09051
1035.60 0.09049
1035.70 0.09047
1035.80 0.09045
1035.90 0.09043
1036.00 0.09041
1036.10 0.09039
1036.20 0.09036
1036.30 0.09034
1036.40 0.09032
1036.50 0.0903
1036.60 0.09028
1036.70 0.09026
1036.80 0.09024
1036.90 0.09021
1037.00 0.09019
1037.10 0.09017
1037.20 0.09014
1037.30 0.09011
1037.40 0.09009
1037.50 0.09006
1037.60 0.09004
1037.70 0.09001
1037.80 0.08998
1037.90 0.08996
1038.00 0.08993
1038.10 0.0899
1038.20 0.08988
1038.30 0.08985
1038.40 0.08983
1038.50 0.0898
1038.60 0.08977
1038.70 0.08975
1038.80 0.08972
1038.90 0.0897
1039.00 0.08967
1039.10 0.08964
1039.20 0.08962
1039.30 0.08959
1039.40 0.08957
1039.50 0.08954
1039.60 0.08951
1039.70 0.08949
1039.80 0.08946
1039.90 0.08944
1040.00 0.08941
1040.10 0.08938
1040.20 0.08936
1040.30 0.08933
1040.40 0.08931
1040.50 0.08928
1040.60 0.08925
1040.70 0.08923
1040.80 0.0892
1040.90 0.08918
1041.00 0.08915
1041.10 0.08913
1041.20 0.0891
1041.30 0.08907
1041.40 0.08905
1041.50 0.08902
1041.60 0.089
1041.70 0.08897
1041.80 0.08894
1041.90 0.08892
1042.00 0.08889
1042.10 0.08886
1042.20 0.08884
1042.30 0.08881
1042.40 0.08878
1042.50 0.08875
1042.60 0.08872
1042.70 0.08869
1042.80 0.08866
1042.90 0.08863
1043.00 0.08861
1043.10 0.08858
1043.20 0.08855
1043.30 0.08852
1043.40 0.08849
1043.50 0.08846
1043.60 0.08843
1043.70 0.0884
1043.80 0.08838
1043.90 0.08835
1044.00 0.08832
1044.10 0.08829
1044.20 0.08826
1044.30 0.08823
1044.40 0.0882
1044.50 0.08818
1044.60 0.08815
1044.70 0.08812
1044.80 0.08809
1044.90 0.08806
1045.00 0.08803
1045.10 0.088
1045.20 0.08798
1045.30 0.08795
1045.40 0.08792
1045.50 0.08789
1045.60 0.08786
1045.70 0.08783
1045.80 0.08781
1045.90 0.08778
1046.00 0.08775
1046.10 0.08772
1046.20 0.08769
1046.30 0.08766
1046.40 0.08763
1046.50 0.08761
1046.60 0.08758
1046.70 0.08755
1046.80 0.08752
1046.90 0.08749
1047.00 0.08746
1047.10 0.08743
1047.20 0.0874
1047.30 0.08737
1047.40 0.08734
1047.50 0.08731
1047.60 0.08728
1047.70 0.08725
1047.80 0.08722
1047.90 0.08719
1048.00 0.08716
1048.10 0.08713
1048.20 0.0871
1048.30 0.08707
1048.40 0.08704
1048.50 0.08701
1048.60 0.08698
1048.70 0.08695
1048.80 0.08692
1048.90 0.08689
1049.00 0.08686
1049.10 0.08683
1049.20 0.0868
1049.30 0.08677
1049.40 0.08674
1049.50 0.08671
1049.60 0.08668
1049.70 0.08665
1049.80 0.08662
1049.90 0.08659
1050.00 0.08656
1050.10 0.08653
1050.20 0.0865
1050.30 0.08647
1050.40 0.08644
1050.50 0.08641
1050.60 0.08638
1050.70 0.08635
1050.80 0.08632
1050.90 0.08629
1051.00 0.08626
1051.10 0.08623
1051.20 0.0862
1051.30 0.08617
1051.40 0.08614
1051.50 0.08611
1051.60 0.08608
1051.70 0.08605
1051.80 0.08602
1051.90 0.08599
1052.00 0.08596
1052.10 0.08592
1052.20 0.08589
1052.30 0.08586
1052.40 0.08583
1052.50 0.0858
1052.60 0.08576
1052.70 0.08573
1052.80 0.0857
1052.90 0.08567
1053.00 0.08563
1053.10 0.0856
1053.20 0.08557
1053.30 0.08554
1053.40 0.0855
1053.50 0.08547
1053.60 0.08544
1053.70 0.08541
1053.80 0.08538
1053.90 0.08534
1054.00 0.08531
1054.10 0.08528
1054.20 0.08525
1054.30 0.08521
1054.40 0.08518
1054.50 0.08515
1054.60 0.08512
1054.70 0.08509
1054.80 0.08505
1054.90 0.08502
1055.00 0.08499
1055.10 0.08496
1055.20 0.08493
1055.30 0.08489
1055.40 0.08486
1055.50 0.08483
1055.60 0.0848
1055.70 0.08476
1055.80 0.08473
1055.90 0.0847
1056.00 0.08467
1056.10 0.08464
1056.20 0.0846
1056.30 0.08457
1056.40 0.08454
1056.50 0.08451
1056.60 0.08448
1056.70 0.08445
1056.80 0.08441
1056.90 0.08438
1057.00 0.08435
1057.10 0.08431
1057.20 0.08428
1057.30 0.08425
1057.40 0.08421
1057.50 0.08418
1057.60 0.08414
1057.70 0.08411
1057.80 0.08407
1057.90 0.08404
1058.00 0.084
1058.10 0.08397
1058.20 0.08393
1058.30 0.0839
1058.40 0.08386
1058.50 0.08383
1058.60 0.08379
1058.70 0.08376
1058.80 0.08372
1058.90 0.08369
1059.00 0.08366
1059.10 0.08362
1059.20 0.08359
1059.30 0.08355
1059.40 0.08352
1059.50 0.08348
1059.60 0.08345
1059.70 0.08341
1059.80 0.08338
1059.90 0.08335
1060.00 0.08331
1060.10 0.08328
1060.20 0.08324
1060.30 0.08321
1060.40 0.08317
1060.50 0.08314
1060.60 0.0831
1060.70 0.08307
1060.80 0.08304
1060.90 0.083
1061.00 0.08297
1061.10 0.08293
1061.20 0.0829
1061.30 0.08286
1061.40 0.08283
1061.50 0.08279
1061.60 0.08276
1061.70 0.08273
1061.80 0.08269
1061.90 0.08266
1062.00 0.08262
1062.10 0.08258
1062.20 0.08255
1062.30 0.08251
1062.40 0.08247
1062.50 0.08243
1062.60 0.08239
1062.70 0.08235
1062.80 0.08231
1062.90 0.08227
1063.00 0.08224
1063.10 0.0822
1063.20 0.08216
1063.30 0.08212
1063.40 0.08208
1063.50 0.08204
1063.60 0.082
1063.70 0.08196
1063.80 0.08193
1063.90 0.08189
1064.00 0.08185
1064.10 0.08181
1064.20 0.08177
1064.30 0.08173
1064.40 0.08169
1064.50 0.08166
1064.60 0.08162
1064.70 0.08158
1064.80 0.08154
1064.90 0.0815
1065.00 0.08146
1065.10 0.08142
1065.20 0.08139
1065.30 0.08135
1065.40 0.08131
1065.50 0.08127
1065.60 0.08123
1065.70 0.08119
1065.80 0.08115
1065.90 0.08112
1066.00 0.08108
1066.10 0.08104
1066.20 0.081
1066.30 0.08096
1066.40 0.08092
1066.50 0.08089
1066.60 0.08085
1066.70 0.08081
1066.80 0.08077
1066.90 0.08073
1067.00 0.08069
1067.10 0.08065
1067.20 0.0806
1067.30 0.08056
1067.40 0.08051
1067.50 0.08046
1067.60 0.08042
1067.70 0.08037
1067.80 0.08033
1067.90 0.08028
1068.00 0.08024
1068.10 0.08019
1068.20 0.08014
1068.30 0.0801
1068.40 0.08005
1068.50 0.08001
1068.60 0.07996
1068.70 0.07991
1068.80 0.07987
1068.90 0.07982
1069.00 0.07978
1069.10 0.07973
1069.20 0.07969
1069.30 0.07964
1069.40 0.07959
1069.50 0.07955
1069.60 0.0795
1069.70 0.07946
1069.80 0.07941
1069.90 0.07937
1070.00 0.07932
1070.10 0.07927
1070.20 0.07923
1070.30 0.07918
1070.40 0.07914
1070.50 0.07909
1070.60 0.07905
1070.70 0.079
1070.80 0.07896
1070.90 0.07891
1071.00 0.07887
1071.10 0.07882
1071.20 0.07877
1071.30 0.07873
1071.40 0.07868
1071.50 0.07864
1071.60 0.07859
1071.70 0.07855
1071.80 0.0785
1071.90 0.07846
1072.00 0.07841
1072.10 0.07836
1072.20 0.0783
1072.30 0.07825
1072.40 0.0782
1072.50 0.07814
1072.60 0.07809
1072.70 0.07803
1072.80 0.07798
1072.90 0.07793
1073.00 0.07787
1073.10 0.07782
1073.20 0.07776
1073.30 0.07771
1073.40 0.07766
1073.50 0.0776
1073.60 0.07754
1073.70 0.07748
1073.80 0.07742
1073.90 0.07736
1074.00 0.07729
1074.10 0.07723
1074.20 0.07717
1074.30 0.07711
1074.40 0.07705
1074.50 0.07699
1074.60 0.07693
1074.70 0.07687
1074.80 0.07681
1074.90 0.07674
1075.00 0.07668
1075.10 0.07662
1075.20 0.07656
1075.30 0.0765
1075.40 0.07644
1075.50 0.07638
1075.60 0.07632
1075.70 0.07626
1075.80 0.0762
1075.90 0.07614
1076.00 0.07607
1076.10 0.07601
1076.20 0.07595
1076.30 0.07589
1076.40 0.07583
1076.50 0.07577
1076.60 0.07571
1076.70 0.07565
1076.80 0.07559
1076.90 0.07553
1077.00 0.07547
1077.10 0.0754
1077.20 0.07533
1077.30 0.07526
1077.40 0.07519
1077.50 0.07512
1077.60 0.07505
1077.70 0.07497
1077.80 0.0749
1077.90 0.07482
1078.00 0.07475
1078.10 0.07467
1078.20 0.0746
1078.30 0.07452
1078.40 0.07444
1078.50 0.07437
1078.60 0.07429
1078.70 0.07422
1078.80 0.07414
1078.90 0.07407
1079.00 0.07399
1079.10 0.07392
1079.20 0.07384
1079.30 0.07377
1079.40 0.07369
1079.50 0.07362
1079.60 0.07353
1079.70 0.07344
1079.80 0.07335
1079.90 0.07327
1080.00 0.07318
1080.10 0.07309
1080.20 0.073
1080.30 0.07292
1080.40 0.07283
1080.50 0.07274
1080.60 0.07266
1080.70 0.07257
1080.80 0.07248
1080.90 0.07239
1081.00 0.07231
1081.10 0.07222
1081.20 0.07213
1081.30 0.07205
1081.40 0.07196
1081.50 0.07187
1081.60 0.07178
1081.70 0.07168
1081.80 0.07159
1081.90 0.07149
1082.00 0.0714
1082.10 0.0713
1082.20 0.07119
1082.30 0.07109
1082.40 0.07099
1082.50 0.07088
1082.60 0.07078
1082.70 0.07068
1082.80 0.07058
1082.90 0.07047
1083.00 0.07037
1083.10 0.07027
1083.20 0.07017
1083.30 0.07006
1083.40 0.06996
1083.50 0.06986
1083.60 0.06974
1083.70 0.06963
1083.80 0.06952
1083.90 0.0694
1084.00 0.06929
1084.10 0.06918
1084.20 0.06906
1084.30 0.06895
1084.40 0.06884
1084.50 0.06872
1084.60 0.06859
1084.70 0.06846
1084.80 0.06834
1084.90 0.06821
1085.00 0.06808
1085.10 0.06795
1085.20 0.06783
1085.30 0.0677
1085.40 0.06757
1085.50 0.06744
1085.60 0.06732
1085.70 0.06719
1085.80 0.06706
1085.90 0.06693
1086.00 0.06681
1086.10 0.06668
1086.20 0.06655
1086.30 0.06642
1086.40 0.0663
1086.50 0.06617
1086.60 0.06602
1086.70 0.06588
1086.80 0.06574
1086.90 0.0656
1087.00 0.06546
1087.10 0.06531
1087.20 0.06516
1087.30 0.065
1087.40 0.06485
1087.50 0.0647
1087.60 0.06455
1087.70 0.0644
1087.80 0.06424
1087.90 0.06409
1088.00 0.06394
1088.10 0.06379
1088.20 0.06364
1088.30 0.06348
1088.40 0.06333
1088.50 0.06317
1088.60 0.063
1088.70 0.06283
1088.80 0.06266
1088.90 0.06248
1089.00 0.06231
1089.10 0.06214
1089.20 0.06196
1089.30 0.06179
1089.40 0.06162
1089.50 0.06145
1089.60 0.06127
1089.70 0.0611
1089.80 0.06093
1089.90 0.06076
1090.00 0.06059
1090.10 0.06041
1090.20 0.06024
1090.30 0.06007
1090.40 0.0599
1090.50 0.05972
1090.60 0.05952
1090.70 0.05932
1090.80 0.05913
1090.90 0.05893
1091.00 0.05874
1091.10 0.05854
1091.20 0.05834
1091.30 0.05815
1091.40 0.05795
1091.50 0.05775
1091.60 0.05756
1091.70 0.05736
1091.80 0.05717
1091.90 0.05697
1092.00 0.05677
1092.10 0.05654
1092.20 0.05632
1092.30 0.05609
1092.40 0.05587
1092.50 0.05564
1092.60 0.05541
1092.70 0.05518
1092.80 0.05494
1092.90 0.0547
1093.00 0.05446
1093.10 0.05424
1093.20 0.05409
1093.30 0.05396
1093.40 0.05421
1093.50 0.0544
1093.60 0.05396
1093.70 0.05396
1093.80 0.05408
1093.90 0.05423
1094.00 0.05444
1094.10 0.05465
1094.20 0.05486
1094.30 0.05506
1094.40 0.05525
1094.50 0.05544
1094.60 0.05563
1094.70 0.05582
1094.80 0.05601
1094.90 0.0562
1095.00 0.05637
1095.10 0.05653
1095.20 0.05669
1095.30 0.05685
1095.40 0.05701
1095.50 0.05716
1095.60 0.05732
1095.70 0.05748
1095.80 0.05764
1095.90 0.0578
1096.00 0.05795
1096.10 0.05811
1096.20 0.05827
1096.30 0.05843
1096.40 0.05858
1096.50 0.05873
1096.60 0.05888
1096.70 0.05902
1096.80 0.05916
1096.90 0.0593
1097.00 0.05944
1097.10 0.05956
1097.20 0.05969
1097.30 0.05982
1097.40 0.05994
1097.50 0.06007
1097.60 0.06019
1097.70 0.06032
1097.80 0.06045
1097.90 0.06057
1098.00 0.0607
1098.10 0.06082
1098.20 0.06095
1098.30 0.06107
1098.40 0.0612
1098.50 0.06132
1098.60 0.06142
1098.70 0.06152
1098.80 0.06163
1098.90 0.06173
1099.00 0.06183
1099.10 0.06194
1099.20 0.06204
1099.30 0.06214
1099.40 0.06225
1099.50 0.06235
1099.60 0.06245
1099.70 0.06255
1099.80 0.06266
1099.90 0.06276
1100.00 0.06286
1100.10 0.06296
1100.20 0.06307
1100.30 0.06317
1100.40 0.06327
1100.50 0.06337
1100.60 0.06345
1100.70 0.06353
1100.80 0.06361
1100.90 0.06369
1101.00 0.06377
1101.10 0.06385
1101.20 0.06394
1101.30 0.06402
1101.40 0.0641
1101.50 0.06418
1101.60 0.06426
1101.70 0.06434
1101.80 0.06442
1101.90 0.0645
1102.00 0.06458
1102.10 0.06465
1102.20 0.06473
1102.30 0.0648
1102.40 0.06487
1102.50 0.06494
1102.60 0.065
1102.70 0.06506
1102.80 0.06512
1102.90 0.06518
1103.00 0.06525
1103.10 0.06531
1103.20 0.06537
1103.30 0.06543
1103.40 0.0655
1103.50 0.06555
1103.60 0.0656
1103.70 0.06565
1103.80 0.0657
1103.90 0.06575
1104.00 0.0658
1104.10 0.06585
1104.20 0.0659
1104.30 0.06595
1104.40 0.066
1104.50 0.06605
1104.60 0.0661
1104.70 0.06615
1104.80 0.0662
1104.90 0.06625
1105.00 0.0663
1105.10 0.06635
1105.20 0.0664
1105.30 0.06645
1105.40 0.0665
1105.50 0.06654
1105.60 0.06658
1105.70 0.06662
1105.80 0.06665
1105.90 0.06669
1106.00 0.06672
1106.10 0.06676
1106.20 0.0668
1106.30 0.06683
1106.40 0.06687
1106.50 0.0669
1106.60 0.06694
1106.70 0.06698
1106.80 0.06701
1106.90 0.06705
1107.00 0.06708
1107.10 0.06711
1107.20 0.06714
1107.30 0.06717
1107.40 0.0672
1107.50 0.06723
1107.60 0.06725
1107.70 0.06727
1107.80 0.0673
1107.90 0.06732
1108.00 0.06734
1108.10 0.06736
1108.20 0.06739
1108.30 0.06741
1108.40 0.06743
1108.50 0.06745
1108.60 0.06748
1108.70 0.0675
1108.80 0.06752
1108.90 0.06754
1109.00 0.06757
1109.10 0.06759
1109.20 0.06761
1109.30 0.06764
1109.40 0.06766
1109.50 0.06768
1109.60 0.06769
1109.70 0.0677
1109.80 0.06771
1109.90 0.06773
1110.00 0.06774
1110.10 0.06775
1110.20 0.06776
1110.30 0.06777
1110.40 0.06779
1110.50 0.0678
1110.60 0.06781
1110.70 0.06782
1110.80 0.06783
1110.90 0.06785
1111.00 0.06786
1111.10 0.06787
1111.20 0.06788
1111.30 0.06789
1111.40 0.06791
1111.50 0.06792
1111.60 0.06793
1111.70 0.06794
1111.80 0.06795
1111.90 0.06797
1112.00 0.06798
1112.10 0.06798
1112.20 0.06799
1112.30 0.06799
1112.40 0.068
1112.50 0.068
1112.60 0.06801
1112.70 0.06801
1112.80 0.06802
1112.90 0.06802
1113.00 0.06803
1113.10 0.06803
1113.20 0.06804
1113.30 0.06804
1113.40 0.06805
1113.50 0.06805
1113.60 0.06805
1113.70 0.06805
1113.80 0.06805
1113.90 0.06804
1114.00 0.06804
1114.10 0.06804
1114.20 0.06804
1114.30 0.06803
1114.40 0.06803
1114.50 0.06803
1114.60 0.06803
1114.70 0.06803
1114.80 0.06802
1114.90 0.06802
1115.00 0.06802
1115.10 0.06802
1115.20 0.06802
1115.30 0.06801
1115.40 0.06801
1115.50 0.06801
1115.60 0.06801
1115.70 0.06801
1115.80 0.068
1115.90 0.068
1116.00 0.068
1116.10 0.068
1116.20 0.068
1116.30 0.06799
1116.40 0.06799
1116.50 0.06799
1116.60 0.06799
1116.70 0.06798
1116.80 0.06798
1116.90 0.06798
1117.00 0.06798
1117.10 0.06797
1117.20 0.06796
1117.30 0.06795
1117.40 0.06794
1117.50 0.06793
1117.60 0.06792
1117.70 0.06791
1117.80 0.0679
1117.90 0.06789
1118.00 0.06788
1118.10 0.06787
1118.20 0.06786
1118.30 0.06785
1118.40 0.06784
1118.50 0.06783
1118.60 0.06782
1118.70 0.06781
1118.80 0.0678
1118.90 0.06779
1119.00 0.06778
1119.10 0.06777
1119.20 0.06776
1119.30 0.06775
1119.40 0.06774
1119.50 0.06773
1119.60 0.06772
1119.70 0.06771
1119.80 0.0677
1119.90 0.06769
1120.00 0.06768
1120.10 0.06767
1120.20 0.06766
1120.30 0.06765
1120.40 0.06764
1120.50 0.06763
1120.60 0.06762
1120.70 0.06761
1120.80 0.0676
1120.90 0.06759
1121.00 0.06758
1121.10 0.06757
1121.20 0.06756
1121.30 0.06755
1121.40 0.06755
1121.50 0.06754
1121.60 0.06753
1121.70 0.06752
1121.80 0.06751
1121.90 0.0675
1122.00 0.06749
1122.10 0.06747
1122.20 0.06746
1122.30 0.06744
1122.40 0.06743
1122.50 0.06741
1122.60 0.0674
1122.70 0.06738
1122.80 0.06737
1122.90 0.06735
1123.00 0.06734
1123.10 0.06732
1123.20 0.06731
1123.30 0.06729
1123.40 0.06728
1123.50 0.06726
1123.60 0.06725
1123.70 0.06723
1123.80 0.06722
1123.90 0.0672
1124.00 0.06719
1124.10 0.06717
1124.20 0.06716
1124.30 0.06714
1124.40 0.06713
1124.50 0.06711
1124.60 0.0671
1124.70 0.06708
1124.80 0.06707
1124.90 0.06706
1125.00 0.06704
1125.10 0.06703
1125.20 0.06701
1125.30 0.067
1125.40 0.06698
1125.50 0.06697
1125.60 0.06695
1125.70 0.06694
1125.80 0.06692
1125.90 0.06691
1126.00 0.06689
1126.10 0.06688
1126.20 0.06686
1126.30 0.06685
1126.40 0.06683
1126.50 0.06682
1126.60 0.0668
1126.70 0.06679
1126.80 0.06677
1126.90 0.06676
1127.00 0.06675
1127.10 0.06673
1127.20 0.06671
1127.30 0.06669
1127.40 0.06668
1127.50 0.06666
1127.60 0.06664
1127.70 0.06662
1127.80 0.06661
1127.90 0.06659
1128.00 0.06657
1128.10 0.06655
1128.20 0.06654
1128.30 0.06652
1128.40 0.0665
1128.50 0.06648
1128.60 0.06647
1128.70 0.06645
1128.80 0.06643
1128.90 0.06641
1129.00 0.0664
1129.10 0.06638
1129.20 0.06636
1129.30 0.06634
1129.40 0.06633
1129.50 0.06631
1129.60 0.06629
1129.70 0.06627
1129.80 0.06626
1129.90 0.06624
1130.00 0.06622
1130.10 0.0662
1130.20 0.06619
1130.30 0.06617
1130.40 0.06615
1130.50 0.06614
1130.60 0.06612
1130.70 0.0661
1130.80 0.06608
1130.90 0.06607
1131.00 0.06605
1131.10 0.06603
1131.20 0.06601
1131.30 0.066
1131.40 0.06598
1131.50 0.06596
1131.60 0.06594
1131.70 0.06593
1131.80 0.06591
1131.90 0.06589
1132.00 0.06588
1132.10 0.06586
1132.20 0.06584
1132.30 0.06582
1132.40 0.0658
1132.50 0.06578
1132.60 0.06576
1132.70 0.06574
1132.80 0.06572
1132.90 0.06571
1133.00 0.06569
1133.10 0.06567
1133.20 0.06565
1133.30 0.06563
1133.40 0.06561
1133.50 0.06559
1133.60 0.06557
1133.70 0.06555
1133.80 0.06554
1133.90 0.06552
1134.00 0.0655
1134.10 0.06548
1134.20 0.06546
1134.30 0.06544
1134.40 0.06542
1134.50 0.0654
1134.60 0.06539
1134.70 0.06537
1134.80 0.06535
1134.90 0.06533
1135.00 0.06531
1135.10 0.06529
1135.20 0.06527
1135.30 0.06525
1135.40 0.06524
1135.50 0.06522
1135.60 0.0652
1135.70 0.06518
1135.80 0.06516
1135.90 0.06514
1136.00 0.06512
1136.10 0.0651
1136.20 0.06509
1136.30 0.06507
1136.40 0.06505
1136.50 0.06503
1136.60 0.06501
1136.70 0.06499
1136.80 0.06497
1136.90 0.06495
1137.00 0.06494
1137.10 0.06492
1137.20 0.0649
1137.30 0.06488
1137.40 0.06486
1137.50 0.06484
1137.60 0.06482
1137.70 0.0648
1137.80 0.06478
1137.90 0.06476
1138.00 0.06474
1138.10 0.06472
1138.20 0.0647
1138.30 0.06469
1138.40 0.06467
1138.50 0.06465
1138.60 0.06463
1138.70 0.06461
1138.80 0.06459
1138.90 0.06457
1139.00 0.06455
1139.10 0.06453
1139.20 0.06451
1139.30 0.06449
1139.40 0.06447
1139.50 0.06445
1139.60 0.06444
1139.70 0.06442
1139.80 0.0644
1139.90 0.06438
1140.00 0.06436
1140.10 0.06434
1140.20 0.06432
1140.30 0.0643
1140.40 0.06428
1140.50 0.06426
1140.60 0.06424
1140.70 0.06422
1140.80 0.06421
1140.90 0.06419
1141.00 0.06417
1141.10 0.06415
1141.20 0.06413
1141.30 0.06411
1141.40 0.06409
1141.50 0.06407
1141.60 0.06405
1141.70 0.06403
1141.80 0.06401
1141.90 0.06399
1142.00 0.06398
1142.10 0.06396
1142.20 0.06394
1142.30 0.06392
1142.40 0.0639
1142.50 0.06388
1142.60 0.06386
1142.70 0.06384
1142.80 0.06382
1142.90 0.0638
1143.00 0.06378
1143.10 0.06376
1143.20 0.06374
1143.30 0.06372
1143.40 0.0637
1143.50 0.06368
1143.60 0.06366
1143.70 0.06364
1143.80 0.06362
1143.90 0.0636
1144.00 0.06359
1144.10 0.06357
1144.20 0.06355
1144.30 0.06353
1144.40 0.06351
1144.50 0.06349
1144.60 0.06347
1144.70 0.06345
1144.80 0.06343
1144.90 0.06341
1145.00 0.06339
1145.10 0.06337
1145.20 0.06335
1145.30 0.06333
1145.40 0.06331
1145.50 0.06329
1145.60 0.06327
1145.70 0.06326
1145.80 0.06324
1145.90 0.06322
1146.00 0.0632
1146.10 0.06318
1146.20 0.06316
1146.30 0.06314
1146.40 0.06312
1146.50 0.0631
1146.60 0.06308
1146.70 0.06306
1146.80 0.06304
1146.90 0.06302
1147.00 0.063
1147.10 0.06298
1147.20 0.06296
1147.30 0.06295
1147.40 0.06293
1147.50 0.06291
1147.60 0.06289
1147.70 0.06287
1147.80 0.06285
1147.90 0.06283
1148.00 0.06281
1148.10 0.06279
1148.20 0.06277
1148.30 0.06275
1148.40 0.06273
1148.50 0.06271
1148.60 0.06269
1148.70 0.06267
1148.80 0.06265
1148.90 0.06263
1149.00 0.06261
1149.10 0.0626
1149.20 0.06258
1149.30 0.06256
1149.40 0.06254
1149.50 0.06252
1149.60 0.0625
1149.70 0.06248
1149.80 0.06246
1149.90 0.06244
1150.00 0.06242
1150.10 0.0624
1150.20 0.06238
1150.30 0.06236
1150.40 0.06234
1150.50 0.06232
1150.60 0.0623
1150.70 0.06229
1150.80 0.06227
1150.90 0.06225
1151.00 0.06223
1151.10 0.06221
1151.20 0.06219
1151.30 0.06217
1151.40 0.06215
1151.50 0.06213
1151.60 0.06211
1151.70 0.06209
1151.80 0.06207
1151.90 0.06205
1152.00 0.06203
1152.10 0.06202
1152.20 0.062
1152.30 0.06198
1152.40 0.06196
1152.50 0.06194
1152.60 0.06192
1152.70 0.0619
1152.80 0.06188
1152.90 0.06186
1153.00 0.06184
1153.10 0.06182
1153.20 0.0618
1153.30 0.06178
1153.40 0.06176
1153.50 0.06174
1153.60 0.06173
1153.70 0.06171
1153.80 0.06169
1153.90 0.06167
1154.00 0.06165
1154.10 0.06163
1154.20 0.06161
1154.30 0.06159
1154.40 0.06157
1154.50 0.06155
1154.60 0.06153
1154.70 0.06151
1154.80 0.06149
1154.90 0.06147
1155.00 0.06146
1155.10 0.06144
1155.20 0.06142
1155.30 0.0614
1155.40 0.06138
1155.50 0.06136
1155.60 0.06134
1155.70 0.06132
1155.80 0.0613
1155.90 0.06128
1156.00 0.06126
1156.10 0.06124
1156.20 0.06123
1156.30 0.06121
1156.40 0.06119
1156.50 0.06117
1156.60 0.06115
1156.70 0.06113
1156.80 0.06111
1156.90 0.06109
1157.00 0.06107
1157.10 0.06105
1157.20 0.06103
1157.30 0.06101
1157.40 0.061
1157.50 0.06098
1157.60 0.06096
1157.70 0.06094
1157.80 0.06092
1157.90 0.0609
1158.00 0.06088
1158.10 0.06086
1158.20 0.06084
1158.30 0.06082
1158.40 0.0608
1158.50 0.06079
1158.60 0.06077
1158.70 0.06075
1158.80 0.06073
1158.90 0.06071
1159.00 0.06069
1159.10 0.06067
1159.20 0.06065
1159.30 0.06063
1159.40 0.06061
1159.50 0.0606
1159.60 0.06058
1159.70 0.06056
1159.80 0.06054
1159.90 0.06052
1160.00 0.0605
1160.10 0.06048
1160.20 0.06046
1160.30 0.06044
1160.40 0.06042
1160.50 0.06041
1160.60 0.06039
1160.70 0.06037
1160.80 0.06035
1160.90 0.06033
1161.00 0.06031
1161.10 0.06029
1161.20 0.06027
1161.30 0.06025
1161.40 0.06024
1161.50 0.06022
1161.60 0.0602
1161.70 0.06018
1161.80 0.06016
1161.90 0.06014
1162.00 0.06012
1162.10 0.0601
1162.20 0.06008
1162.30 0.06007
1162.40 0.06005
1162.50 0.06003
1162.60 0.06001
1162.70 0.05999
1162.80 0.05997
1162.90 0.05995
1163.00 0.05993
1163.10 0.05991
1163.20 0.0599
1163.30 0.05988
1163.40 0.05986
1163.50 0.05984
1163.60 0.05982
1163.70 0.0598
1163.80 0.05978
1163.90 0.05976
1164.00 0.05975
1164.10 0.05973
1164.20 0.05971
1164.30 0.05969
1164.40 0.05967
1164.50 0.05965
1164.60 0.05963
1164.70 0.05961
1164.80 0.0596
1164.90 0.05958
1165.00 0.05956
1165.10 0.05954
1165.20 0.05952
1165.30 0.0595
1165.40 0.05948
1165.50 0.05946
1165.60 0.05945
1165.70 0.05943
1165.80 0.05941
1165.90 0.05939
1166.00 0.05937
1166.10 0.05935
1166.20 0.05933
1166.30 0.05931
1166.40 0.0593
1166.50 0.05928
1166.60 0.05926
1166.70 0.05924
1166.80 0.05922
1166.90 0.0592
1167.00 0.05918
1167.10 0.05917
1167.20 0.05915
1167.30 0.05913
1167.40 0.05911
1167.50 0.05909
1167.60 0.05907
1167.70 0.05905
1167.80 0.05904
1167.90 0.05902
1168.00 0.059
1168.10 0.05898
1168.20 0.05896
1168.30 0.05894
1168.40 0.05892
1168.50 0.05891
1168.60 0.05889
1168.70 0.05887
1168.80 0.05885
1168.90 0.05883
1169.00 0.05881
1169.10 0.05879
1169.20 0.05878
1169.30 0.05876
1169.40 0.05874
1169.50 0.05872
1169.60 0.0587
1169.70 0.05868
1169.80 0.05867
1169.90 0.05865
1170.00 0.05863
1170.10 0.05861
1170.20 0.05859
1170.30 0.05857
1170.40 0.05855
1170.50 0.05854
1170.60 0.05852
1170.70 0.0585
1170.80 0.05848
1170.90 0.05846
1171.00 0.05844
1171.10 0.05843
1171.20 0.05841
1171.30 0.05839
1171.40 0.05837
1171.50 0.05835
1171.60 0.05833
1171.70 0.05832
1171.80 0.0583
1171.90 0.05828
1172.00 0.05826
1172.10 0.05824
1172.20 0.05822
1172.30 0.05821
1172.40 0.05819
1172.50 0.05817
1172.60 0.05815
1172.70 0.05813
1172.80 0.05811
1172.90 0.0581
1173.00 0.05808
1173.10 0.05806
1173.20 0.05804
1173.30 0.05802
1173.40 0.058
1173.50 0.05799
1173.60 0.05797
1173.70 0.05795
1173.80 0.05793
1173.90 0.05791
1174.00 0.0579
1174.10 0.05788
1174.20 0.05786
1174.30 0.05784
1174.40 0.05782
1174.50 0.0578
1174.60 0.05779
1174.70 0.05777
1174.80 0.05775
1174.90 0.05773
1175.00 0.05771
1175.10 0.0577
1175.20 0.05768
1175.30 0.05766
1175.40 0.05764
1175.50 0.05762
1175.60 0.05761
1175.70 0.05759
1175.80 0.05757
1175.90 0.05755
1176.00 0.05753
1176.10 0.05751
1176.20 0.0575
1176.30 0.05748
1176.40 0.05746
1176.50 0.05744
1176.60 0.05742
1176.70 0.05741
1176.80 0.05739
1176.90 0.05737
1177.00 0.05735
1177.10 0.05733
1177.20 0.05732
1177.30 0.0573
1177.40 0.05728
1177.50 0.05726
1177.60 0.05724
1177.70 0.05723
1177.80 0.05721
1177.90 0.05719
1178.00 0.05717
1178.10 0.05715
1178.20 0.05714
1178.30 0.05712
1178.40 0.0571
1178.50 0.05708
1178.60 0.05706
1178.70 0.05705
1178.80 0.05703
1178.90 0.05701
1179.00 0.05699
1179.10 0.05697
1179.20 0.05696
1179.30 0.05694
1179.40 0.05692
1179.50 0.0569
1179.60 0.05688
1179.70 0.05687
1179.80 0.05685
1179.90 0.05683
1180.00 0.05681
1180.10 0.0568
1180.20 0.05678
1180.30 0.05676
1180.40 0.05674
1180.50 0.05672
1180.60 0.05671
1180.70 0.05669
1180.80 0.05667
1180.90 0.05665
1181.00 0.05663
1181.10 0.05662
1181.20 0.0566
1181.30 0.05658
1181.40 0.05656
1181.50 0.05655
1181.60 0.05653
1181.70 0.05651
1181.80 0.05649
1181.90 0.05647
1182.00 0.05646
1182.10 0.05644
1182.20 0.05642
1182.30 0.0564
1182.40 0.05639
1182.50 0.05637
1182.60 0.05635
1182.70 0.05633
1182.80 0.05631
1182.90 0.0563
1183.00 0.05628
1183.10 0.05626
1183.20 0.05624
1183.30 0.05623
1183.40 0.05621
1183.50 0.05619
1183.60 0.05617
1183.70 0.05616
1183.80 0.05614
1183.90 0.05612
1184.00 0.0561
1184.10 0.05609
1184.20 0.05607
1184.30 0.05605
1184.40 0.05603
1184.50 0.05602
1184.60 0.056
1184.70 0.05598
1184.80 0.05596
1184.90 0.05594
1185.00 0.05593
1185.10 0.05591
1185.20 0.05589
1185.30 0.05587
1185.40 0.05586
1185.50 0.05584
1185.60 0.05582
1185.70 0.0558
1185.80 0.05579
1185.90 0.05577
1186.00 0.05575
1186.10 0.05573
1186.20 0.05572
1186.30 0.0557
1186.40 0.05568
1186.50 0.05566
1186.60 0.05565
1186.70 0.05563
1186.80 0.05561
1186.90 0.05559
1187.00 0.05558
1187.10 0.05556
1187.20 0.05554
1187.30 0.05552
1187.40 0.05551
1187.50 0.05549
1187.60 0.05547
1187.70 0.05546
1187.80 0.05544
1187.90 0.05542
1188.00 0.0554
1188.10 0.05539
1188.20 0.05537
1188.30 0.05535
1188.40 0.05533
1188.50 0.05532
1188.60 0.0553
1188.70 0.05528
1188.80 0.05526
1188.90 0.05525
1189.00 0.05523
1189.10 0.05521
1189.20 0.05519
1189.30 0.05518
1189.40 0.05516
1189.50 0.05514
1189.60 0.05513
1189.70 0.05511
1189.80 0.05509
1189.90 0.05507
1190.00 0.05506
1190.10 0.05504
1190.20 0.05502
1190.30 0.055
1190.40 0.05499
1190.50 0.05497
1190.60 0.05495
1190.70 0.05494
1190.80 0.05492
1190.90 0.0549
1191.00 0.05488
1191.10 0.05487
1191.20 0.05485
1191.30 0.05483
1191.40 0.05482
1191.50 0.0548
1191.60 0.05478
1191.70 0.05476
1191.80 0.05475
1191.90 0.05473
1192.00 0.05471
1192.10 0.05469
1192.20 0.05468
1192.30 0.05466
1192.40 0.05464
1192.50 0.05463
1192.60 0.05461
1192.70 0.05459
1192.80 0.05457
1192.90 0.05456
1193.00 0.05454
1193.10 0.05452
1193.20 0.05451
1193.30 0.05449
1193.40 0.05447
1193.50 0.05445
1193.60 0.05444
1193.70 0.05442
1193.80 0.0544
1193.90 0.05439
1194.00 0.05437
1194.10 0.05435
1194.20 0.05434
1194.30 0.05432
1194.40 0.0543
1194.50 0.05428
1194.60 0.05427
1194.70 0.05425
1194.80 0.05423
1194.90 0.05422
1195.00 0.0542
1195.10 0.05418
1195.20 0.05416
1195.30 0.05415
1195.40 0.05413
1195.50 0.05411
1195.60 0.0541
1195.70 0.05408
1195.80 0.05406
1195.90 0.05405
1196.00 0.05403
1196.10 0.05401
1196.20 0.05399
1196.30 0.05398
1196.40 0.05396
1196.50 0.05394
1196.60 0.05393
1196.70 0.05391
1196.80 0.05389
1196.90 0.05388
1197.00 0.05386
1197.10 0.05384
1197.20 0.05383
1197.30 0.05381
1197.40 0.05379
1197.50 0.05377
1197.60 0.05376
1197.70 0.05374
1197.80 0.05372
1197.90 0.05371
1198.00 0.05369
1198.10 0.05367
1198.20 0.05366
1198.30 0.05364
1198.40 0.05362
1198.50 0.05361
1198.60 0.05359
1198.70 0.05357
1198.80 0.05356
1198.90 0.05354
1199.00 0.05352
1199.10 0.05351
1199.20 0.05349
1199.30 0.05347
1199.40 0.05346
1199.50 0.05344
1199.60 0.05342
1199.70 0.05341
1199.80 0.05339
1199.90 0.05337
1200.00 0
