# Version 2.1 - nm, norm@500 to 1, cut digits, bergeron_100000_80.dat_100000
# Wavelength(nm)  Flambda(ergs/cm^s/s/nm)
300.00 6.836
300.10 6.827
300.20 6.819
300.30 6.81
300.40 6.802
300.50 6.793
300.60 6.785
300.70 6.776
300.80 6.768
300.90 6.759
301.00 6.751
301.10 6.742
301.20 6.734
301.30 6.726
301.40 6.717
301.50 6.709
301.60 6.7
301.70 6.692
301.80 6.684
301.90 6.675
302.00 6.667
302.10 6.659
302.20 6.65
302.30 6.642
302.40 6.634
302.50 6.625
302.60 6.617
302.70 6.609
302.80 6.601
302.90 6.593
303.00 6.584
303.10 6.576
303.20 6.568
303.30 6.56
303.40 6.552
303.50 6.544
303.60 6.535
303.70 6.527
303.80 6.519
303.90 6.511
304.00 6.503
304.10 6.495
304.20 6.487
304.30 6.479
304.40 6.471
304.50 6.463
304.60 6.455
304.70 6.447
304.80 6.439
304.90 6.431
305.00 6.423
305.10 6.415
305.20 6.407
305.30 6.399
305.40 6.391
305.50 6.383
305.60 6.376
305.70 6.368
305.80 6.36
305.90 6.352
306.00 6.344
306.10 6.336
306.20 6.329
306.30 6.321
306.40 6.313
306.50 6.305
306.60 6.298
306.70 6.29
306.80 6.282
306.90 6.274
307.00 6.267
307.10 6.259
307.20 6.251
307.30 6.244
307.40 6.236
307.50 6.228
307.60 6.221
307.70 6.213
307.80 6.205
307.90 6.198
308.00 6.19
308.10 6.183
308.20 6.175
308.30 6.168
308.40 6.16
308.50 6.153
308.60 6.145
308.70 6.137
308.80 6.13
308.90 6.123
309.00 6.115
309.10 6.108
309.20 6.1
309.30 6.093
309.40 6.085
309.50 6.078
309.60 6.07
309.70 6.063
309.80 6.056
309.90 6.048
310.00 6.041
310.10 6.034
310.20 6.026
310.30 6.019
310.40 6.012
310.50 6.004
310.60 5.997
310.70 5.99
310.80 5.982
310.90 5.975
311.00 5.968
311.10 5.961
311.20 5.954
311.30 5.946
311.40 5.939
311.50 5.932
311.60 5.925
311.70 5.918
311.80 5.91
311.90 5.903
312.00 5.896
312.10 5.889
312.20 5.882
312.30 5.875
312.40 5.868
312.50 5.861
312.60 5.853
312.70 5.846
312.80 5.839
312.90 5.832
313.00 5.825
313.10 5.818
313.20 5.811
313.30 5.804
313.40 5.797
313.50 5.79
313.60 5.783
313.70 5.776
313.80 5.769
313.90 5.763
314.00 5.756
314.10 5.749
314.20 5.742
314.30 5.735
314.40 5.728
314.50 5.721
314.60 5.714
314.70 5.707
314.80 5.701
314.90 5.694
315.00 5.687
315.10 5.68
315.20 5.673
315.30 5.666
315.40 5.66
315.50 5.653
315.60 5.646
315.70 5.639
315.80 5.633
315.90 5.626
316.00 5.619
316.10 5.613
316.20 5.606
316.30 5.599
316.40 5.592
316.50 5.586
316.60 5.579
316.70 5.572
316.80 5.566
316.90 5.559
317.00 5.553
317.10 5.546
317.20 5.539
317.30 5.533
317.40 5.526
317.50 5.52
317.60 5.513
317.70 5.507
317.80 5.5
317.90 5.493
318.00 5.487
318.10 5.48
318.20 5.474
318.30 5.467
318.40 5.461
318.50 5.454
318.60 5.448
318.70 5.442
318.80 5.435
318.90 5.429
319.00 5.422
319.10 5.416
319.20 5.409
319.30 5.403
319.40 5.397
319.50 5.39
319.60 5.384
319.70 5.378
319.80 5.371
319.90 5.365
320.00 5.359
320.10 5.352
320.20 5.346
320.30 5.34
320.40 5.333
320.50 5.327
320.60 5.321
320.70 5.314
320.80 5.308
320.90 5.302
321.00 5.296
321.10 5.289
321.20 5.283
321.30 5.277
321.40 5.271
321.50 5.265
321.60 5.258
321.70 5.252
321.80 5.246
321.90 5.24
322.00 5.234
322.10 5.228
322.20 5.222
322.30 5.215
322.40 5.209
322.50 5.203
322.60 5.197
322.70 5.191
322.80 5.185
322.90 5.179
323.00 5.173
323.10 5.167
323.20 5.161
323.30 5.155
323.40 5.149
323.50 5.143
323.60 5.137
323.70 5.131
323.80 5.125
323.90 5.119
324.00 5.113
324.10 5.107
324.20 5.101
324.30 5.095
324.40 5.089
324.50 5.083
324.60 5.077
324.70 5.071
324.80 5.065
324.90 5.059
325.00 5.054
325.10 5.048
325.20 5.042
325.30 5.036
325.40 5.03
325.50 5.024
325.60 5.018
325.70 5.013
325.80 5.007
325.90 5.001
326.00 4.995
326.10 4.989
326.20 4.984
326.30 4.978
326.40 4.972
326.50 4.966
326.60 4.961
326.70 4.955
326.80 4.949
326.90 4.943
327.00 4.938
327.10 4.932
327.20 4.926
327.30 4.921
327.40 4.915
327.50 4.909
327.60 4.904
327.70 4.898
327.80 4.892
327.90 4.887
328.00 4.881
328.10 4.875
328.20 4.87
328.30 4.864
328.40 4.859
328.50 4.853
328.60 4.847
328.70 4.842
328.80 4.836
328.90 4.831
329.00 4.825
329.10 4.82
329.20 4.814
329.30 4.808
329.40 4.803
329.50 4.797
329.60 4.792
329.70 4.786
329.80 4.781
329.90 4.776
330.00 4.77
330.10 4.765
330.20 4.759
330.30 4.754
330.40 4.748
330.50 4.743
330.60 4.737
330.70 4.732
330.80 4.727
330.90 4.721
331.00 4.716
331.10 4.71
331.20 4.705
331.30 4.7
331.40 4.694
331.50 4.689
331.60 4.684
331.70 4.678
331.80 4.673
331.90 4.668
332.00 4.662
332.10 4.657
332.20 4.652
332.30 4.646
332.40 4.641
332.50 4.636
332.60 4.631
332.70 4.625
332.80 4.62
332.90 4.615
333.00 4.61
333.10 4.604
333.20 4.599
333.30 4.594
333.40 4.589
333.50 4.583
333.60 4.578
333.70 4.573
333.80 4.568
333.90 4.563
334.00 4.557
334.10 4.552
334.20 4.547
334.30 4.542
334.40 4.537
334.50 4.532
334.60 4.527
334.70 4.522
334.80 4.516
334.90 4.511
335.00 4.506
335.10 4.501
335.20 4.496
335.30 4.491
335.40 4.486
335.50 4.481
335.60 4.476
335.70 4.471
335.80 4.466
335.90 4.461
336.00 4.456
336.10 4.451
336.20 4.446
336.30 4.441
336.40 4.436
336.50 4.431
336.60 4.426
336.70 4.421
336.80 4.416
336.90 4.411
337.00 4.406
337.10 4.401
337.20 4.396
337.30 4.391
337.40 4.386
337.50 4.381
337.60 4.376
337.70 4.371
337.80 4.366
337.90 4.362
338.00 4.357
338.10 4.352
338.20 4.347
338.30 4.342
338.40 4.337
338.50 4.332
338.60 4.328
338.70 4.323
338.80 4.318
338.90 4.313
339.00 4.308
339.10 4.303
339.20 4.299
339.30 4.294
339.40 4.289
339.50 4.284
339.60 4.279
339.70 4.275
339.80 4.27
339.90 4.265
340.00 4.26
340.10 4.256
340.20 4.251
340.30 4.246
340.40 4.242
340.50 4.237
340.60 4.232
340.70 4.227
340.80 4.223
340.90 4.218
341.00 4.213
341.10 4.209
341.20 4.204
341.30 4.199
341.40 4.195
341.50 4.19
341.60 4.185
341.70 4.181
341.80 4.176
341.90 4.171
342.00 4.167
342.10 4.162
342.20 4.158
342.30 4.153
342.40 4.148
342.50 4.144
342.60 4.139
342.70 4.135
342.80 4.13
342.90 4.126
343.00 4.121
343.10 4.116
343.20 4.112
343.30 4.107
343.40 4.103
343.50 4.098
343.60 4.094
343.70 4.089
343.80 4.085
343.90 4.08
344.00 4.076
344.10 4.071
344.20 4.067
344.30 4.062
344.40 4.058
344.50 4.053
344.60 4.049
344.70 4.045
344.80 4.04
344.90 4.036
345.00 4.031
345.10 4.027
345.20 4.022
345.30 4.018
345.40 4.014
345.50 4.009
345.60 4.005
345.70 4
345.80 3.996
345.90 3.992
346.00 3.987
346.10 3.983
346.20 3.978
346.30 3.974
346.40 3.97
346.50 3.965
346.60 3.961
346.70 3.957
346.80 3.953
346.90 3.948
347.00 3.944
347.10 3.94
347.20 3.935
347.30 3.931
347.40 3.927
347.50 3.922
347.60 3.918
347.70 3.914
347.80 3.91
347.90 3.905
348.00 3.901
348.10 3.897
348.20 3.893
348.30 3.888
348.40 3.884
348.50 3.88
348.60 3.876
348.70 3.872
348.80 3.867
348.90 3.863
349.00 3.859
349.10 3.855
349.20 3.851
349.30 3.846
349.40 3.842
349.50 3.838
349.60 3.834
349.70 3.83
349.80 3.826
349.90 3.821
350.00 3.817
350.10 3.813
350.20 3.809
350.30 3.805
350.40 3.801
350.50 3.797
350.60 3.793
350.70 3.788
350.80 3.784
350.90 3.78
351.00 3.776
351.10 3.772
351.20 3.768
351.30 3.764
351.40 3.76
351.50 3.756
351.60 3.752
351.70 3.748
351.80 3.744
351.90 3.74
352.00 3.736
352.10 3.732
352.20 3.728
352.30 3.724
352.40 3.72
352.50 3.716
352.60 3.712
352.70 3.708
352.80 3.704
352.90 3.7
353.00 3.696
353.10 3.692
353.20 3.688
353.30 3.684
353.40 3.68
353.50 3.676
353.60 3.672
353.70 3.668
353.80 3.664
353.90 3.66
354.00 3.656
354.10 3.652
354.20 3.648
354.30 3.645
354.40 3.641
354.50 3.637
354.60 3.633
354.70 3.629
354.80 3.625
354.90 3.621
355.00 3.617
355.10 3.613
355.20 3.61
355.30 3.606
355.40 3.602
355.50 3.598
355.60 3.594
355.70 3.59
355.80 3.587
355.90 3.583
356.00 3.579
356.10 3.575
356.20 3.571
356.30 3.568
356.40 3.564
356.50 3.56
356.60 3.556
356.70 3.552
356.80 3.549
356.90 3.545
357.00 3.541
357.10 3.537
357.20 3.534
357.30 3.53
357.40 3.526
357.50 3.522
357.60 3.519
357.70 3.515
357.80 3.511
357.90 3.507
358.00 3.504
358.10 3.5
358.20 3.496
358.30 3.493
358.40 3.489
358.50 3.485
358.60 3.481
358.70 3.478
358.80 3.474
358.90 3.47
359.00 3.467
359.10 3.463
359.20 3.459
359.30 3.456
359.40 3.452
359.50 3.449
359.60 3.445
359.70 3.441
359.80 3.438
359.90 3.434
360.00 3.43
360.10 3.427
360.20 3.423
360.30 3.42
360.40 3.416
360.50 3.412
360.60 3.409
360.70 3.405
360.80 3.402
360.90 3.398
361.00 3.394
361.10 3.391
361.20 3.387
361.30 3.384
361.40 3.38
361.50 3.377
361.60 3.373
361.70 3.37
361.80 3.366
361.90 3.362
362.00 3.359
362.10 3.355
362.20 3.352
362.30 3.348
362.40 3.345
362.50 3.341
362.60 3.338
362.70 3.334
362.80 3.331
362.90 3.327
363.00 3.324
363.10 3.32
363.20 3.317
363.30 3.314
363.40 3.31
363.50 3.307
363.60 3.303
363.70 3.3
363.80 3.296
363.90 3.293
364.00 3.289
364.10 3.286
364.20 3.283
364.30 3.279
364.40 3.276
364.50 3.272
364.60 3.269
364.70 3.266
364.80 3.262
364.90 3.259
365.00 3.255
365.10 3.252
365.20 3.249
365.30 3.245
365.40 3.242
365.50 3.238
365.60 3.235
365.70 3.232
365.80 3.228
365.90 3.225
366.00 3.222
366.10 3.218
366.20 3.215
366.30 3.212
366.40 3.208
366.50 3.205
366.60 3.202
366.70 3.198
366.80 3.195
366.90 3.192
367.00 3.188
367.10 3.185
367.20 3.181
367.30 3.178
367.40 3.175
367.50 3.172
367.60 3.168
367.70 3.165
367.80 3.162
367.90 3.158
368.00 3.155
368.10 3.152
368.20 3.148
368.30 3.145
368.40 3.142
368.50 3.138
368.60 3.135
368.70 3.132
368.80 3.129
368.90 3.125
369.00 3.122
369.10 3.119
369.20 3.116
369.30 3.112
369.40 3.109
369.50 3.106
369.60 3.102
369.70 3.099
369.80 3.096
369.90 3.093
370.00 3.089
370.10 3.086
370.20 3.083
370.30 3.08
370.40 3.077
370.50 3.073
370.60 3.07
370.70 3.067
370.80 3.064
370.90 3.061
371.00 3.058
371.10 3.054
371.20 3.051
371.30 3.048
371.40 3.045
371.50 3.042
371.60 3.039
371.70 3.035
371.80 3.032
371.90 3.029
372.00 3.026
372.10 3.023
372.20 3.02
372.30 3.017
372.40 3.014
372.50 3.01
372.60 3.007
372.70 3.004
372.80 3.001
372.90 2.998
373.00 2.995
373.10 2.992
373.20 2.989
373.30 2.986
373.40 2.983
373.50 2.98
373.60 2.977
373.70 2.974
373.80 2.971
373.90 2.967
374.00 2.964
374.10 2.961
374.20 2.958
374.30 2.955
374.40 2.952
374.50 2.949
374.60 2.946
374.70 2.943
374.80 2.94
374.90 2.937
375.00 2.934
375.10 2.931
375.20 2.928
375.30 2.925
375.40 2.922
375.50 2.919
375.60 2.916
375.70 2.913
375.80 2.91
375.90 2.907
376.00 2.904
376.10 2.901
376.20 2.898
376.30 2.895
376.40 2.892
376.50 2.889
376.60 2.887
376.70 2.884
376.80 2.881
376.90 2.878
377.00 2.875
377.10 2.872
377.20 2.869
377.30 2.866
377.40 2.863
377.50 2.86
377.60 2.858
377.70 2.855
377.80 2.852
377.90 2.849
378.00 2.846
378.10 2.843
378.20 2.84
378.30 2.838
378.40 2.835
378.50 2.832
378.60 2.829
378.70 2.826
378.80 2.823
378.90 2.821
379.00 2.818
379.10 2.815
379.20 2.812
379.30 2.809
379.40 2.807
379.50 2.804
379.60 2.801
379.70 2.798
379.80 2.796
379.90 2.793
380.00 2.79
380.10 2.787
380.20 2.785
380.30 2.782
380.40 2.779
380.50 2.776
380.60 2.774
380.70 2.771
380.80 2.768
380.90 2.766
381.00 2.763
381.10 2.76
381.20 2.758
381.30 2.755
381.40 2.752
381.50 2.75
381.60 2.747
381.70 2.744
381.80 2.741
381.90 2.739
382.00 2.736
382.10 2.733
382.20 2.731
382.30 2.728
382.40 2.725
382.50 2.723
382.60 2.72
382.70 2.717
382.80 2.715
382.90 2.712
383.00 2.709
383.10 2.707
383.20 2.704
383.30 2.701
383.40 2.699
383.50 2.696
383.60 2.694
383.70 2.691
383.80 2.689
383.90 2.686
384.00 2.684
384.10 2.681
384.20 2.679
384.30 2.676
384.40 2.674
384.50 2.671
384.60 2.669
384.70 2.667
384.80 2.664
384.90 2.662
385.00 2.659
385.10 2.657
385.20 2.654
385.30 2.652
385.40 2.649
385.50 2.647
385.60 2.644
385.70 2.642
385.80 2.639
385.90 2.637
386.00 2.634
386.10 2.631
386.20 2.629
386.30 2.626
386.40 2.623
386.50 2.621
386.60 2.618
386.70 2.615
386.80 2.613
386.90 2.61
387.00 2.607
387.10 2.605
387.20 2.602
387.30 2.599
387.40 2.596
387.50 2.594
387.60 2.591
387.70 2.588
387.80 2.585
387.90 2.583
388.00 2.58
388.10 2.577
388.20 2.574
388.30 2.572
388.40 2.569
388.50 2.566
388.60 2.564
388.70 2.561
388.80 2.559
388.90 2.557
389.00 2.555
389.10 2.552
389.20 2.55
389.30 2.548
389.40 2.546
389.50 2.544
389.60 2.542
389.70 2.54
389.80 2.538
389.90 2.536
390.00 2.534
390.10 2.532
390.20 2.531
390.30 2.529
390.40 2.527
390.50 2.525
390.60 2.523
390.70 2.521
390.80 2.519
390.90 2.517
391.00 2.515
391.10 2.513
391.20 2.511
391.30 2.509
391.40 2.507
391.50 2.504
391.60 2.502
391.70 2.5
391.80 2.498
391.90 2.496
392.00 2.493
392.10 2.491
392.20 2.489
392.30 2.486
392.40 2.484
392.50 2.481
392.60 2.479
392.70 2.476
392.80 2.474
392.90 2.471
393.00 2.469
393.10 2.466
393.20 2.463
393.30 2.461
393.40 2.458
393.50 2.455
393.60 2.452
393.70 2.449
393.80 2.447
393.90 2.444
394.00 2.441
394.10 2.438
394.20 2.435
394.30 2.431
394.40 2.428
394.50 2.425
394.60 2.422
394.70 2.419
394.80 2.415
394.90 2.412
395.00 2.409
395.10 2.405
395.20 2.402
395.30 2.398
395.40 2.395
395.50 2.391
395.60 2.388
395.70 2.384
395.80 2.381
395.90 2.377
396.00 2.374
396.10 2.37
396.20 2.366
396.30 2.363
396.40 2.359
396.50 2.356
396.60 2.352
396.70 2.349
396.80 2.346
396.90 2.343
397.00 2.34
397.10 2.338
397.20 2.337
397.30 2.336
397.40 2.335
397.50 2.335
397.60 2.334
397.70 2.333
397.80 2.333
397.90 2.332
398.00 2.331
398.10 2.331
398.20 2.33
398.30 2.33
398.40 2.329
398.50 2.328
398.60 2.327
398.70 2.327
398.80 2.326
398.90 2.325
399.00 2.324
399.10 2.323
399.20 2.323
399.30 2.322
399.40 2.321
399.50 2.32
399.60 2.319
399.70 2.318
399.80 2.316
399.90 2.315
400.00 2.314
400.10 2.313
400.20 2.312
400.30 2.31
400.40 2.309
400.50 2.308
400.60 2.306
400.70 2.305
400.80 2.303
400.90 2.302
401.00 2.3
401.10 2.299
401.20 2.297
401.30 2.296
401.40 2.294
401.50 2.292
401.60 2.291
401.70 2.289
401.80 2.287
401.90 2.285
402.00 2.283
402.10 2.282
402.20 2.28
402.30 2.278
402.40 2.276
402.50 2.274
402.60 2.272
402.70 2.27
402.80 2.268
402.90 2.266
403.00 2.264
403.10 2.262
403.20 2.26
403.30 2.257
403.40 2.255
403.50 2.253
403.60 2.251
403.70 2.249
403.80 2.246
403.90 2.244
404.00 2.242
404.10 2.239
404.20 2.237
404.30 2.234
404.40 2.232
404.50 2.229
404.60 2.227
404.70 2.224
404.80 2.222
404.90 2.219
405.00 2.217
405.10 2.214
405.20 2.211
405.30 2.208
405.40 2.206
405.50 2.203
405.60 2.2
405.70 2.197
405.80 2.194
405.90 2.191
406.00 2.188
406.10 2.185
406.20 2.182
406.30 2.178
406.40 2.175
406.50 2.172
406.60 2.168
406.70 2.165
406.80 2.161
406.90 2.158
407.00 2.154
407.10 2.15
407.20 2.147
407.30 2.143
407.40 2.139
407.50 2.135
407.60 2.131
407.70 2.127
407.80 2.123
407.90 2.118
408.00 2.114
408.10 2.11
408.20 2.105
408.30 2.1
408.40 2.096
408.50 2.091
408.60 2.086
408.70 2.081
408.80 2.077
408.90 2.072
409.00 2.067
409.10 2.062
409.20 2.056
409.30 2.051
409.40 2.046
409.50 2.042
409.60 2.037
409.70 2.033
409.80 2.029
409.90 2.026
410.00 2.025
410.10 2.025
410.20 2.025
410.30 2.02
410.40 2.017
410.50 2.016
410.60 2.015
410.70 2.016
410.80 2.017
410.90 2.018
411.00 2.019
411.10 2.02
411.20 2.022
411.30 2.023
411.40 2.024
411.50 2.026
411.60 2.027
411.70 2.028
411.80 2.029
411.90 2.03
412.00 2.031
412.10 2.032
412.20 2.032
412.30 2.033
412.40 2.033
412.50 2.034
412.60 2.034
412.70 2.035
412.80 2.035
412.90 2.035
413.00 2.035
413.10 2.035
413.20 2.035
413.30 2.035
413.40 2.035
413.50 2.035
413.60 2.034
413.70 2.034
413.80 2.033
413.90 2.033
414.00 2.032
414.10 2.032
414.20 2.031
414.30 2.03
414.40 2.03
414.50 2.029
414.60 2.028
414.70 2.027
414.80 2.026
414.90 2.025
415.00 2.024
415.10 2.023
415.20 2.022
415.30 2.021
415.40 2.02
415.50 2.019
415.60 2.018
415.70 2.016
415.80 2.015
415.90 2.014
416.00 2.013
416.10 2.011
416.20 2.01
416.30 2.009
416.40 2.007
416.50 2.006
416.60 2.005
416.70 2.003
416.80 2.002
416.90 2
417.00 1.999
417.10 1.998
417.20 1.996
417.30 1.995
417.40 1.993
417.50 1.992
417.60 1.99
417.70 1.988
417.80 1.987
417.90 1.985
418.00 1.984
418.10 1.982
418.20 1.981
418.30 1.979
418.40 1.977
418.50 1.976
418.60 1.974
418.70 1.973
418.80 1.971
418.90 1.969
419.00 1.968
419.10 1.966
419.20 1.964
419.30 1.963
419.40 1.961
419.50 1.959
419.60 1.958
419.70 1.956
419.80 1.954
419.90 1.953
420.00 1.951
420.10 1.949
420.20 1.948
420.30 1.946
420.40 1.944
420.50 1.943
420.60 1.941
420.70 1.939
420.80 1.937
420.90 1.936
421.00 1.934
421.10 1.932
421.20 1.931
421.30 1.929
421.40 1.927
421.50 1.925
421.60 1.924
421.70 1.922
421.80 1.92
421.90 1.919
422.00 1.917
422.10 1.915
422.20 1.913
422.30 1.912
422.40 1.91
422.50 1.908
422.60 1.906
422.70 1.905
422.80 1.903
422.90 1.901
423.00 1.899
423.10 1.897
423.20 1.896
423.30 1.894
423.40 1.892
423.50 1.89
423.60 1.889
423.70 1.887
423.80 1.885
423.90 1.883
424.00 1.881
424.10 1.88
424.20 1.878
424.30 1.876
424.40 1.874
424.50 1.872
424.60 1.871
424.70 1.869
424.80 1.867
424.90 1.865
425.00 1.863
425.10 1.862
425.20 1.86
425.30 1.858
425.40 1.856
425.50 1.854
425.60 1.852
425.70 1.85
425.80 1.848
425.90 1.847
426.00 1.845
426.10 1.843
426.20 1.841
426.30 1.839
426.40 1.837
426.50 1.835
426.60 1.833
426.70 1.831
426.80 1.829
426.90 1.827
427.00 1.825
427.10 1.823
427.20 1.821
427.30 1.819
427.40 1.817
427.50 1.815
427.60 1.813
427.70 1.811
427.80 1.809
427.90 1.807
428.00 1.804
428.10 1.802
428.20 1.8
428.30 1.798
428.40 1.796
428.50 1.793
428.60 1.791
428.70 1.789
428.80 1.786
428.90 1.784
429.00 1.781
429.10 1.779
429.20 1.776
429.30 1.774
429.40 1.771
429.50 1.769
429.60 1.766
429.70 1.763
429.80 1.76
429.90 1.758
430.00 1.755
430.10 1.752
430.20 1.749
430.30 1.746
430.40 1.742
430.50 1.739
430.60 1.736
430.70 1.733
430.80 1.729
430.90 1.726
431.00 1.722
431.10 1.718
431.20 1.714
431.30 1.711
431.40 1.707
431.50 1.702
431.60 1.698
431.70 1.694
431.80 1.69
431.90 1.685
432.00 1.68
432.10 1.676
432.20 1.671
432.30 1.666
432.40 1.661
432.50 1.656
432.60 1.65
432.70 1.645
432.80 1.64
432.90 1.634
433.00 1.629
433.10 1.623
433.20 1.618
433.30 1.612
433.40 1.607
433.50 1.602
433.60 1.597
433.70 1.592
433.80 1.587
433.90 1.581
434.00 1.577
434.10 1.576
434.20 1.578
434.30 1.58
434.40 1.583
434.50 1.585
434.60 1.587
434.70 1.59
434.80 1.592
434.90 1.595
435.00 1.597
435.10 1.6
435.20 1.603
435.30 1.605
435.40 1.608
435.50 1.61
435.60 1.613
435.70 1.615
435.80 1.617
435.90 1.619
436.00 1.621
436.10 1.623
436.20 1.624
436.30 1.626
436.40 1.627
436.50 1.629
436.60 1.63
436.70 1.631
436.80 1.632
436.90 1.633
437.00 1.633
437.10 1.634
437.20 1.635
437.30 1.635
437.40 1.636
437.50 1.636
437.60 1.636
437.70 1.636
437.80 1.636
437.90 1.636
438.00 1.636
438.10 1.636
438.20 1.636
438.30 1.636
438.40 1.635
438.50 1.635
438.60 1.634
438.70 1.634
438.80 1.634
438.90 1.633
439.00 1.632
439.10 1.632
439.20 1.631
439.30 1.63
439.40 1.63
439.50 1.629
439.60 1.628
439.70 1.627
439.80 1.627
439.90 1.626
440.00 1.625
440.10 1.624
440.20 1.623
440.30 1.622
440.40 1.621
440.50 1.62
440.60 1.619
440.70 1.618
440.80 1.617
440.90 1.616
441.00 1.615
441.10 1.614
441.20 1.613
441.30 1.612
441.40 1.61
441.50 1.609
441.60 1.608
441.70 1.607
441.80 1.606
441.90 1.605
442.00 1.604
442.10 1.602
442.20 1.601
442.30 1.6
442.40 1.599
442.50 1.598
442.60 1.596
442.70 1.595
442.80 1.594
442.90 1.593
443.00 1.592
443.10 1.59
443.20 1.589
443.30 1.588
443.40 1.587
443.50 1.585
443.60 1.584
443.70 1.583
443.80 1.582
443.90 1.58
444.00 1.579
444.10 1.578
444.20 1.577
444.30 1.575
444.40 1.574
444.50 1.573
444.60 1.571
444.70 1.57
444.80 1.569
444.90 1.568
445.00 1.566
445.10 1.565
445.20 1.564
445.30 1.562
445.40 1.561
445.50 1.56
445.60 1.559
445.70 1.557
445.80 1.556
445.90 1.555
446.00 1.553
446.10 1.552
446.20 1.551
446.30 1.55
446.40 1.548
446.50 1.547
446.60 1.546
446.70 1.544
446.80 1.543
446.90 1.542
447.00 1.541
447.10 1.539
447.20 1.538
447.30 1.537
447.40 1.535
447.50 1.534
447.60 1.533
447.70 1.532
447.80 1.53
447.90 1.529
448.00 1.528
448.10 1.526
448.20 1.525
448.30 1.524
448.40 1.523
448.50 1.521
448.60 1.52
448.70 1.519
448.80 1.518
448.90 1.516
449.00 1.515
449.10 1.514
449.20 1.512
449.30 1.511
449.40 1.51
449.50 1.509
449.60 1.507
449.70 1.506
449.80 1.505
449.90 1.504
450.00 1.502
450.10 1.501
450.20 1.5
450.30 1.498
450.40 1.497
450.50 1.496
450.60 1.495
450.70 1.493
450.80 1.492
450.90 1.491
451.00 1.49
451.10 1.488
451.20 1.487
451.30 1.486
451.40 1.485
451.50 1.483
451.60 1.482
451.70 1.481
451.80 1.48
451.90 1.478
452.00 1.477
452.10 1.476
452.20 1.475
452.30 1.473
452.40 1.472
452.50 1.471
452.60 1.47
452.70 1.468
452.80 1.467
452.90 1.466
453.00 1.465
453.10 1.463
453.20 1.462
453.30 1.461
453.40 1.46
453.50 1.458
453.60 1.457
453.70 1.456
453.80 1.455
453.90 1.454
454.00 1.452
454.10 1.451
454.20 1.45
454.30 1.449
454.40 1.447
454.50 1.446
454.60 1.445
454.70 1.444
454.80 1.443
454.90 1.441
455.00 1.44
455.10 1.439
455.20 1.438
455.30 1.436
455.40 1.435
455.50 1.434
455.60 1.433
455.70 1.432
455.80 1.43
455.90 1.429
456.00 1.428
456.10 1.427
456.20 1.426
456.30 1.424
456.40 1.423
456.50 1.422
456.60 1.421
456.70 1.42
456.80 1.418
456.90 1.417
457.00 1.416
457.10 1.415
457.20 1.414
457.30 1.412
457.40 1.411
457.50 1.41
457.60 1.409
457.70 1.408
457.80 1.407
457.90 1.405
458.00 1.404
458.10 1.403
458.20 1.402
458.30 1.401
458.40 1.399
458.50 1.398
458.60 1.397
458.70 1.396
458.80 1.395
458.90 1.394
459.00 1.392
459.10 1.391
459.20 1.39
459.30 1.389
459.40 1.388
459.50 1.387
459.60 1.385
459.70 1.384
459.80 1.383
459.90 1.382
460.00 1.381
460.10 1.38
460.20 1.378
460.30 1.377
460.40 1.376
460.50 1.375
460.60 1.374
460.70 1.373
460.80 1.371
460.90 1.37
461.00 1.369
461.10 1.368
461.20 1.367
461.30 1.366
461.40 1.365
461.50 1.363
461.60 1.362
461.70 1.361
461.80 1.36
461.90 1.359
462.00 1.358
462.10 1.357
462.20 1.355
462.30 1.354
462.40 1.353
462.50 1.352
462.60 1.351
462.70 1.35
462.80 1.349
462.90 1.348
463.00 1.346
463.10 1.345
463.20 1.344
463.30 1.343
463.40 1.342
463.50 1.341
463.60 1.34
463.70 1.339
463.80 1.337
463.90 1.336
464.00 1.335
464.10 1.334
464.20 1.333
464.30 1.332
464.40 1.331
464.50 1.33
464.60 1.329
464.70 1.327
464.80 1.326
464.90 1.325
465.00 1.324
465.10 1.323
465.20 1.322
465.30 1.321
465.40 1.32
465.50 1.319
465.60 1.318
465.70 1.316
465.80 1.315
465.90 1.314
466.00 1.313
466.10 1.312
466.20 1.311
466.30 1.31
466.40 1.309
466.50 1.308
466.60 1.307
466.70 1.305
466.80 1.304
466.90 1.303
467.00 1.302
467.10 1.301
467.20 1.3
467.30 1.299
467.40 1.298
467.50 1.297
467.60 1.296
467.70 1.295
467.80 1.294
467.90 1.292
468.00 1.291
468.10 1.29
468.20 1.289
468.30 1.288
468.40 1.287
468.50 1.286
468.60 1.285
468.70 1.284
468.80 1.283
468.90 1.282
469.00 1.281
469.10 1.28
469.20 1.278
469.30 1.277
469.40 1.276
469.50 1.275
469.60 1.274
469.70 1.273
469.80 1.272
469.90 1.271
470.00 1.27
470.10 1.269
470.20 1.268
470.30 1.267
470.40 1.266
470.50 1.265
470.60 1.264
470.70 1.263
470.80 1.261
470.90 1.26
471.00 1.259
471.10 1.258
471.20 1.257
471.30 1.256
471.40 1.255
471.50 1.254
471.60 1.253
471.70 1.252
471.80 1.251
471.90 1.25
472.00 1.249
472.10 1.248
472.20 1.247
472.30 1.246
472.40 1.245
472.50 1.244
472.60 1.243
472.70 1.241
472.80 1.24
472.90 1.239
473.00 1.238
473.10 1.237
473.20 1.236
473.30 1.235
473.40 1.234
473.50 1.233
473.60 1.232
473.70 1.231
473.80 1.23
473.90 1.229
474.00 1.228
474.10 1.227
474.20 1.226
474.30 1.225
474.40 1.224
474.50 1.223
474.60 1.222
474.70 1.22
474.80 1.219
474.90 1.218
475.00 1.217
475.10 1.216
475.20 1.215
475.30 1.214
475.40 1.213
475.50 1.212
475.60 1.211
475.70 1.21
475.80 1.209
475.90 1.208
476.00 1.207
476.10 1.206
476.20 1.205
476.30 1.204
476.40 1.202
476.50 1.201
476.60 1.2
476.70 1.199
476.80 1.198
476.90 1.197
477.00 1.196
477.10 1.195
477.20 1.194
477.30 1.193
477.40 1.192
477.50 1.19
477.60 1.189
477.70 1.188
477.80 1.187
477.90 1.186
478.00 1.185
478.10 1.184
478.20 1.183
478.30 1.182
478.40 1.18
478.50 1.179
478.60 1.178
478.70 1.177
478.80 1.176
478.90 1.175
479.00 1.173
479.10 1.172
479.20 1.171
479.30 1.17
479.40 1.169
479.50 1.167
479.60 1.166
479.70 1.165
479.80 1.164
479.90 1.162
480.00 1.161
480.10 1.16
480.20 1.159
480.30 1.157
480.40 1.156
480.50 1.154
480.60 1.153
480.70 1.152
480.80 1.15
480.90 1.149
481.00 1.147
481.10 1.146
481.20 1.144
481.30 1.143
481.40 1.141
481.50 1.139
481.60 1.138
481.70 1.136
481.80 1.135
481.90 1.133
482.00 1.131
482.10 1.13
482.20 1.128
482.30 1.126
482.40 1.124
482.50 1.122
482.60 1.119
482.70 1.117
482.80 1.115
482.90 1.113
483.00 1.111
483.10 1.109
483.20 1.107
483.30 1.104
483.40 1.101
483.50 1.098
483.60 1.096
483.70 1.093
483.80 1.09
483.90 1.088
484.00 1.085
484.10 1.082
484.20 1.079
484.30 1.076
484.40 1.072
484.50 1.069
484.60 1.066
484.70 1.062
484.80 1.058
484.90 1.055
485.00 1.051
485.10 1.047
485.20 1.043
485.30 1.04
485.40 1.036
485.50 1.032
485.60 1.029
485.70 1.025
485.80 1.023
485.90 1.021
486.00 1.023
486.10 1.033
486.20 1.028
486.30 1.019
486.40 1.018
486.50 1.018
486.60 1.019
486.70 1.021
486.80 1.023
486.90 1.025
487.00 1.027
487.10 1.029
487.20 1.032
487.30 1.034
487.40 1.036
487.50 1.038
487.60 1.04
487.70 1.041
487.80 1.043
487.90 1.045
488.00 1.046
488.10 1.048
488.20 1.049
488.30 1.05
488.40 1.051
488.50 1.052
488.60 1.053
488.70 1.054
488.80 1.055
488.90 1.056
489.00 1.057
489.10 1.058
489.20 1.058
489.30 1.059
489.40 1.059
489.50 1.059
489.60 1.059
489.70 1.06
489.80 1.06
489.90 1.06
490.00 1.06
490.10 1.061
490.20 1.061
490.30 1.061
490.40 1.06
490.50 1.06
490.60 1.06
490.70 1.06
490.80 1.06
490.90 1.06
491.00 1.059
491.10 1.059
491.20 1.059
491.30 1.059
491.40 1.058
491.50 1.058
491.60 1.057
491.70 1.057
491.80 1.056
491.90 1.056
492.00 1.056
492.10 1.055
492.20 1.055
492.30 1.054
492.40 1.054
492.50 1.053
492.60 1.052
492.70 1.052
492.80 1.051
492.90 1.051
493.00 1.05
493.10 1.05
493.20 1.049
493.30 1.048
493.40 1.048
493.50 1.047
493.60 1.046
493.70 1.046
493.80 1.045
493.90 1.045
494.00 1.044
494.10 1.043
494.20 1.043
494.30 1.042
494.40 1.041
494.50 1.04
494.60 1.04
494.70 1.039
494.80 1.038
494.90 1.038
495.00 1.037
495.10 1.036
495.20 1.036
495.30 1.035
495.40 1.034
495.50 1.033
495.60 1.033
495.70 1.032
495.80 1.031
495.90 1.031
496.00 1.03
496.10 1.029
496.20 1.028
496.30 1.028
496.40 1.027
496.50 1.026
496.60 1.025
496.70 1.025
496.80 1.024
496.90 1.023
497.00 1.022
497.10 1.022
497.20 1.021
497.30 1.02
497.40 1.019
497.50 1.019
497.60 1.018
497.70 1.017
497.80 1.016
497.90 1.016
498.00 1.015
498.10 1.014
498.20 1.014
498.30 1.013
498.40 1.012
498.50 1.011
498.60 1.011
498.70 1.01
498.80 1.009
498.90 1.008
499.00 1.008
499.10 1.007
499.20 1.006
499.30 1.005
499.40 1.005
499.50 1.004
499.60 1.003
499.70 1.002
499.80 1.001
499.90 1.001
500.00 1
500.10 0.9993
500.20 0.9985
500.30 0.9977
500.40 0.997
500.50 0.9962
500.60 0.9955
500.70 0.9947
500.80 0.994
500.90 0.9933
501.00 0.9925
501.10 0.9918
501.20 0.991
501.30 0.9903
501.40 0.9895
501.50 0.9888
501.60 0.988
501.70 0.9873
501.80 0.9865
501.90 0.9858
502.00 0.9851
502.10 0.9843
502.20 0.9836
502.30 0.9828
502.40 0.9821
502.50 0.9813
502.60 0.9806
502.70 0.9799
502.80 0.9791
502.90 0.9784
503.00 0.9776
503.10 0.9769
503.20 0.9762
503.30 0.9754
503.40 0.9747
503.50 0.9739
503.60 0.9732
503.70 0.9725
503.80 0.9717
503.90 0.971
504.00 0.9702
504.10 0.9695
504.20 0.9688
504.30 0.968
504.40 0.9673
504.50 0.9666
504.60 0.9658
504.70 0.9651
504.80 0.9644
504.90 0.9637
505.00 0.9629
505.10 0.9622
505.20 0.9615
505.30 0.9607
505.40 0.96
505.50 0.9593
505.60 0.9586
505.70 0.9578
505.80 0.9571
505.90 0.9564
506.00 0.9557
506.10 0.9549
506.20 0.9542
506.30 0.9535
506.40 0.9528
506.50 0.9521
506.60 0.9513
506.70 0.9506
506.80 0.9499
506.90 0.9492
507.00 0.9485
507.10 0.9477
507.20 0.947
507.30 0.9463
507.40 0.9456
507.50 0.9449
507.60 0.9442
507.70 0.9434
507.80 0.9427
507.90 0.942
508.00 0.9413
508.10 0.9406
508.20 0.9399
508.30 0.9392
508.40 0.9385
508.50 0.9378
508.60 0.937
508.70 0.9363
508.80 0.9356
508.90 0.9349
509.00 0.9342
509.10 0.9335
509.20 0.9328
509.30 0.9321
509.40 0.9314
509.50 0.9307
509.60 0.93
509.70 0.9293
509.80 0.9286
509.90 0.9279
510.00 0.9272
510.10 0.9265
510.20 0.9258
510.30 0.9251
510.40 0.9244
510.50 0.9237
510.60 0.923
510.70 0.9223
510.80 0.9216
510.90 0.9209
511.00 0.9202
511.10 0.9195
511.20 0.9188
511.30 0.9181
511.40 0.9175
511.50 0.9168
511.60 0.9161
511.70 0.9154
511.80 0.9147
511.90 0.914
512.00 0.9133
512.10 0.9126
512.20 0.9119
512.30 0.9113
512.40 0.9106
512.50 0.9099
512.60 0.9092
512.70 0.9085
512.80 0.9078
512.90 0.9072
513.00 0.9065
513.10 0.9058
513.20 0.9051
513.30 0.9044
513.40 0.9037
513.50 0.9031
513.60 0.9024
513.70 0.9017
513.80 0.901
513.90 0.9004
514.00 0.8997
514.10 0.899
514.20 0.8983
514.30 0.8977
514.40 0.897
514.50 0.8963
514.60 0.8956
514.70 0.895
514.80 0.8943
514.90 0.8936
515.00 0.893
515.10 0.8923
515.20 0.8916
515.30 0.891
515.40 0.8903
515.50 0.8896
515.60 0.889
515.70 0.8883
515.80 0.8876
515.90 0.887
516.00 0.8863
516.10 0.8856
516.20 0.885
516.30 0.8843
516.40 0.8837
516.50 0.883
516.60 0.8823
516.70 0.8817
516.80 0.881
516.90 0.8804
517.00 0.8797
517.10 0.879
517.20 0.8784
517.30 0.8777
517.40 0.8771
517.50 0.8764
517.60 0.8758
517.70 0.8751
517.80 0.8745
517.90 0.8738
518.00 0.8732
518.10 0.8725
518.20 0.8719
518.30 0.8712
518.40 0.8706
518.50 0.8699
518.60 0.8693
518.70 0.8686
518.80 0.868
518.90 0.8673
519.00 0.8667
519.10 0.866
519.20 0.8654
519.30 0.8648
519.40 0.8641
519.50 0.8635
519.60 0.8628
519.70 0.8622
519.80 0.8616
519.90 0.8609
520.00 0.8603
520.10 0.8596
520.20 0.859
520.30 0.8584
520.40 0.8577
520.50 0.8571
520.60 0.8564
520.70 0.8558
520.80 0.8552
520.90 0.8545
521.00 0.8539
521.10 0.8533
521.20 0.8526
521.30 0.852
521.40 0.8514
521.50 0.8507
521.60 0.8501
521.70 0.8495
521.80 0.8489
521.90 0.8482
522.00 0.8476
522.10 0.847
522.20 0.8463
522.30 0.8457
522.40 0.8451
522.50 0.8445
522.60 0.8438
522.70 0.8432
522.80 0.8426
522.90 0.842
523.00 0.8414
523.10 0.8407
523.20 0.8401
523.30 0.8395
523.40 0.8389
523.50 0.8383
523.60 0.8376
523.70 0.837
523.80 0.8364
523.90 0.8358
524.00 0.8352
524.10 0.8345
524.20 0.8339
524.30 0.8333
524.40 0.8327
524.50 0.8321
524.60 0.8315
524.70 0.8309
524.80 0.8303
524.90 0.8296
525.00 0.829
525.10 0.8284
525.20 0.8278
525.30 0.8272
525.40 0.8266
525.50 0.826
525.60 0.8254
525.70 0.8248
525.80 0.8242
525.90 0.8236
526.00 0.823
526.10 0.8224
526.20 0.8217
526.30 0.8211
526.40 0.8205
526.50 0.8199
526.60 0.8193
526.70 0.8187
526.80 0.8181
526.90 0.8175
527.00 0.8169
527.10 0.8163
527.20 0.8157
527.30 0.8151
527.40 0.8145
527.50 0.8139
527.60 0.8133
527.70 0.8128
527.80 0.8122
527.90 0.8116
528.00 0.811
528.10 0.8104
528.20 0.8098
528.30 0.8092
528.40 0.8086
528.50 0.808
528.60 0.8074
528.70 0.8068
528.80 0.8062
528.90 0.8056
529.00 0.8051
529.10 0.8045
529.20 0.8039
529.30 0.8033
529.40 0.8027
529.50 0.8021
529.60 0.8015
529.70 0.8009
529.80 0.8004
529.90 0.7998
530.00 0.7992
530.10 0.7986
530.20 0.798
530.30 0.7974
530.40 0.7969
530.50 0.7963
530.60 0.7957
530.70 0.7951
530.80 0.7945
530.90 0.794
531.00 0.7934
531.10 0.7928
531.20 0.7922
531.30 0.7917
531.40 0.7911
531.50 0.7905
531.60 0.7899
531.70 0.7894
531.80 0.7888
531.90 0.7882
532.00 0.7876
532.10 0.7871
532.20 0.7865
532.30 0.7859
532.40 0.7853
532.50 0.7848
532.60 0.7842
532.70 0.7836
532.80 0.7831
532.90 0.7825
533.00 0.7819
533.10 0.7814
533.20 0.7808
533.30 0.7802
533.40 0.7797
533.50 0.7791
533.60 0.7785
533.70 0.778
533.80 0.7774
533.90 0.7768
534.00 0.7763
534.10 0.7757
534.20 0.7752
534.30 0.7746
534.40 0.774
534.50 0.7735
534.60 0.7729
534.70 0.7724
534.80 0.7718
534.90 0.7712
535.00 0.7707
535.10 0.7701
535.20 0.7696
535.30 0.769
535.40 0.7685
535.50 0.7679
535.60 0.7674
535.70 0.7668
535.80 0.7662
535.90 0.7657
536.00 0.7651
536.10 0.7646
536.20 0.764
536.30 0.7635
536.40 0.7629
536.50 0.7624
536.60 0.7618
536.70 0.7613
536.80 0.7607
536.90 0.7602
537.00 0.7596
537.10 0.7591
537.20 0.7586
537.30 0.758
537.40 0.7575
537.50 0.7569
537.60 0.7564
537.70 0.7558
537.80 0.7553
537.90 0.7547
538.00 0.7542
538.10 0.7536
538.20 0.7531
538.30 0.7526
538.40 0.752
538.50 0.7515
538.60 0.7509
538.70 0.7504
538.80 0.7499
538.90 0.7493
539.00 0.7488
539.10 0.7483
539.20 0.7477
539.30 0.7472
539.40 0.7466
539.50 0.7461
539.60 0.7456
539.70 0.745
539.80 0.7445
539.90 0.744
540.00 0.7434
540.10 0.7429
540.20 0.7424
540.30 0.7418
540.40 0.7413
540.50 0.7408
540.60 0.7403
540.70 0.7397
540.80 0.7392
540.90 0.7387
541.00 0.7381
541.10 0.7376
541.20 0.7371
541.30 0.7366
541.40 0.736
541.50 0.7355
541.60 0.735
541.70 0.7345
541.80 0.7339
541.90 0.7334
542.00 0.7329
542.10 0.7324
542.20 0.7318
542.30 0.7313
542.40 0.7308
542.50 0.7303
542.60 0.7297
542.70 0.7292
542.80 0.7287
542.90 0.7282
543.00 0.7277
543.10 0.7271
543.20 0.7266
543.30 0.7261
543.40 0.7256
543.50 0.7251
543.60 0.7246
543.70 0.724
543.80 0.7235
543.90 0.723
544.00 0.7225
544.10 0.722
544.20 0.7215
544.30 0.721
544.40 0.7205
544.50 0.7199
544.60 0.7194
544.70 0.7189
544.80 0.7184
544.90 0.7179
545.00 0.7174
545.10 0.7169
545.20 0.7164
545.30 0.7159
545.40 0.7154
545.50 0.7148
545.60 0.7143
545.70 0.7138
545.80 0.7133
545.90 0.7128
546.00 0.7123
546.10 0.7118
546.20 0.7113
546.30 0.7108
546.40 0.7103
546.50 0.7098
546.60 0.7093
546.70 0.7088
546.80 0.7083
546.90 0.7078
547.00 0.7073
547.10 0.7068
547.20 0.7063
547.30 0.7058
547.40 0.7053
547.50 0.7048
547.60 0.7043
547.70 0.7038
547.80 0.7033
547.90 0.7028
548.00 0.7023
548.10 0.7018
548.20 0.7013
548.30 0.7008
548.40 0.7003
548.50 0.6998
548.60 0.6993
548.70 0.6988
548.80 0.6983
548.90 0.6979
549.00 0.6974
549.10 0.6969
549.20 0.6964
549.30 0.6959
549.40 0.6954
549.50 0.6949
549.60 0.6944
549.70 0.6939
549.80 0.6934
549.90 0.6929
550.00 0.6925
550.10 0.692
550.20 0.6915
550.30 0.691
550.40 0.6905
550.50 0.69
550.60 0.6895
550.70 0.6891
550.80 0.6886
550.90 0.6881
551.00 0.6876
551.10 0.6871
551.20 0.6866
551.30 0.6862
551.40 0.6857
551.50 0.6852
551.60 0.6847
551.70 0.6842
551.80 0.6838
551.90 0.6833
552.00 0.6828
552.10 0.6823
552.20 0.6818
552.30 0.6814
552.40 0.6809
552.50 0.6804
552.60 0.6799
552.70 0.6795
552.80 0.679
552.90 0.6785
553.00 0.678
553.10 0.6776
553.20 0.6771
553.30 0.6766
553.40 0.6761
553.50 0.6757
553.60 0.6752
553.70 0.6747
553.80 0.6742
553.90 0.6738
554.00 0.6733
554.10 0.6728
554.20 0.6724
554.30 0.6719
554.40 0.6714
554.50 0.671
554.60 0.6705
554.70 0.67
554.80 0.6696
554.90 0.6691
555.00 0.6686
555.10 0.6682
555.20 0.6677
555.30 0.6672
555.40 0.6668
555.50 0.6663
555.60 0.6658
555.70 0.6654
555.80 0.6649
555.90 0.6644
556.00 0.664
556.10 0.6635
556.20 0.663
556.30 0.6626
556.40 0.6621
556.50 0.6617
556.60 0.6612
556.70 0.6607
556.80 0.6603
556.90 0.6598
557.00 0.6594
557.10 0.6589
557.20 0.6585
557.30 0.658
557.40 0.6575
557.50 0.6571
557.60 0.6566
557.70 0.6562
557.80 0.6557
557.90 0.6553
558.00 0.6548
558.10 0.6543
558.20 0.6539
558.30 0.6534
558.40 0.653
558.50 0.6525
558.60 0.6521
558.70 0.6516
558.80 0.6512
558.90 0.6507
559.00 0.6503
559.10 0.6498
559.20 0.6494
559.30 0.6489
559.40 0.6485
559.50 0.648
559.60 0.6476
559.70 0.6471
559.80 0.6467
559.90 0.6462
560.00 0.6458
560.10 0.6453
560.20 0.6449
560.30 0.6444
560.40 0.644
560.50 0.6436
560.60 0.6431
560.70 0.6427
560.80 0.6422
560.90 0.6418
561.00 0.6413
561.10 0.6409
561.20 0.6405
561.30 0.64
561.40 0.6396
561.50 0.6391
561.60 0.6387
561.70 0.6383
561.80 0.6378
561.90 0.6374
562.00 0.6369
562.10 0.6365
562.20 0.6361
562.30 0.6356
562.40 0.6352
562.50 0.6347
562.60 0.6343
562.70 0.6339
562.80 0.6334
562.90 0.633
563.00 0.6326
563.10 0.6321
563.20 0.6317
563.30 0.6313
563.40 0.6308
563.50 0.6304
563.60 0.63
563.70 0.6295
563.80 0.6291
563.90 0.6287
564.00 0.6282
564.10 0.6278
564.20 0.6274
564.30 0.6269
564.40 0.6265
564.50 0.6261
564.60 0.6256
564.70 0.6252
564.80 0.6248
564.90 0.6244
565.00 0.6239
565.10 0.6235
565.20 0.6231
565.30 0.6226
565.40 0.6222
565.50 0.6218
565.60 0.6214
565.70 0.6209
565.80 0.6205
565.90 0.6201
566.00 0.6197
566.10 0.6192
566.20 0.6188
566.30 0.6184
566.40 0.618
566.50 0.6176
566.60 0.6171
566.70 0.6167
566.80 0.6163
566.90 0.6159
567.00 0.6154
567.10 0.615
567.20 0.6146
567.30 0.6142
567.40 0.6138
567.50 0.6134
567.60 0.6129
567.70 0.6125
567.80 0.6121
567.90 0.6117
568.00 0.6113
568.10 0.6108
568.20 0.6104
568.30 0.61
568.40 0.6096
568.50 0.6092
568.60 0.6088
568.70 0.6083
568.80 0.6079
568.90 0.6075
569.00 0.6071
569.10 0.6067
569.20 0.6063
569.30 0.6059
569.40 0.6055
569.50 0.605
569.60 0.6046
569.70 0.6042
569.80 0.6038
569.90 0.6034
570.00 0.603
570.10 0.6026
570.20 0.6022
570.30 0.6018
570.40 0.6014
570.50 0.6009
570.60 0.6005
570.70 0.6001
570.80 0.5997
570.90 0.5993
571.00 0.5989
571.10 0.5985
571.20 0.5981
571.30 0.5977
571.40 0.5973
571.50 0.5969
571.60 0.5965
571.70 0.5961
571.80 0.5957
571.90 0.5953
572.00 0.5949
572.10 0.5945
572.20 0.5941
572.30 0.5937
572.40 0.5933
572.50 0.5928
572.60 0.5924
572.70 0.592
572.80 0.5916
572.90 0.5912
573.00 0.5908
573.10 0.5904
573.20 0.59
573.30 0.5896
573.40 0.5893
573.50 0.5889
573.60 0.5885
573.70 0.5881
573.80 0.5877
573.90 0.5873
574.00 0.5869
574.10 0.5865
574.20 0.5861
574.30 0.5857
574.40 0.5853
574.50 0.5849
574.60 0.5845
574.70 0.5841
574.80 0.5837
574.90 0.5833
575.00 0.5829
575.10 0.5825
575.20 0.5821
575.30 0.5817
575.40 0.5814
575.50 0.581
575.60 0.5806
575.70 0.5802
575.80 0.5798
575.90 0.5794
576.00 0.579
576.10 0.5786
576.20 0.5782
576.30 0.5778
576.40 0.5775
576.50 0.5771
576.60 0.5767
576.70 0.5763
576.80 0.5759
576.90 0.5755
577.00 0.5751
577.10 0.5747
577.20 0.5744
577.30 0.574
577.40 0.5736
577.50 0.5732
577.60 0.5728
577.70 0.5724
577.80 0.5721
577.90 0.5717
578.00 0.5713
578.10 0.5709
578.20 0.5705
578.30 0.5701
578.40 0.5698
578.50 0.5694
578.60 0.569
578.70 0.5686
578.80 0.5682
578.90 0.5678
579.00 0.5675
579.10 0.5671
579.20 0.5667
579.30 0.5663
579.40 0.5659
579.50 0.5656
579.60 0.5652
579.70 0.5648
579.80 0.5644
579.90 0.5641
580.00 0.5637
580.10 0.5633
580.20 0.5629
580.30 0.5626
580.40 0.5622
580.50 0.5618
580.60 0.5614
580.70 0.5611
580.80 0.5607
580.90 0.5603
581.00 0.5599
581.10 0.5596
581.20 0.5592
581.30 0.5588
581.40 0.5584
581.50 0.5581
581.60 0.5577
581.70 0.5573
581.80 0.557
581.90 0.5566
582.00 0.5562
582.10 0.5558
582.20 0.5555
582.30 0.5551
582.40 0.5547
582.50 0.5544
582.60 0.554
582.70 0.5536
582.80 0.5533
582.90 0.5529
583.00 0.5525
583.10 0.5522
583.20 0.5518
583.30 0.5514
583.40 0.5511
583.50 0.5507
583.60 0.5503
583.70 0.55
583.80 0.5496
583.90 0.5492
584.00 0.5489
584.10 0.5485
584.20 0.5481
584.30 0.5478
584.40 0.5474
584.50 0.547
584.60 0.5467
584.70 0.5463
584.80 0.546
584.90 0.5456
585.00 0.5452
585.10 0.5449
585.20 0.5445
585.30 0.5442
585.40 0.5438
585.50 0.5434
585.60 0.5431
585.70 0.5427
585.80 0.5424
585.90 0.542
586.00 0.5416
586.10 0.5413
586.20 0.5409
586.30 0.5406
586.40 0.5402
586.50 0.5398
586.60 0.5395
586.70 0.5391
586.80 0.5388
586.90 0.5384
587.00 0.5381
587.10 0.5377
587.20 0.5374
587.30 0.537
587.40 0.5366
587.50 0.5363
587.60 0.5359
587.70 0.5356
587.80 0.5352
587.90 0.5349
588.00 0.5345
588.10 0.5342
588.20 0.5338
588.30 0.5335
588.40 0.5331
588.50 0.5328
588.60 0.5324
588.70 0.5321
588.80 0.5317
588.90 0.5314
589.00 0.531
589.10 0.5307
589.20 0.5303
589.30 0.53
589.40 0.5296
589.50 0.5293
589.60 0.5289
589.70 0.5286
589.80 0.5282
589.90 0.5279
590.00 0.5275
590.10 0.5272
590.20 0.5268
590.30 0.5265
590.40 0.5262
590.50 0.5258
590.60 0.5255
590.70 0.5251
590.80 0.5248
590.90 0.5244
591.00 0.5241
591.10 0.5237
591.20 0.5234
591.30 0.5231
591.40 0.5227
591.50 0.5224
591.60 0.522
591.70 0.5217
591.80 0.5213
591.90 0.521
592.00 0.5207
592.10 0.5203
592.20 0.52
592.30 0.5196
592.40 0.5193
592.50 0.519
592.60 0.5186
592.70 0.5183
592.80 0.5179
592.90 0.5176
593.00 0.5173
593.10 0.5169
593.20 0.5166
593.30 0.5162
593.40 0.5159
593.50 0.5156
593.60 0.5152
593.70 0.5149
593.80 0.5146
593.90 0.5142
594.00 0.5139
594.10 0.5136
594.20 0.5132
594.30 0.5129
594.40 0.5125
594.50 0.5122
594.60 0.5119
594.70 0.5115
594.80 0.5112
594.90 0.5109
595.00 0.5105
595.10 0.5102
595.20 0.5099
595.30 0.5096
595.40 0.5092
595.50 0.5089
595.60 0.5086
595.70 0.5082
595.80 0.5079
595.90 0.5076
596.00 0.5072
596.10 0.5069
596.20 0.5066
596.30 0.5062
596.40 0.5059
596.50 0.5056
596.60 0.5053
596.70 0.5049
596.80 0.5046
596.90 0.5043
597.00 0.5039
597.10 0.5036
597.20 0.5033
597.30 0.503
597.40 0.5026
597.50 0.5023
597.60 0.502
597.70 0.5017
597.80 0.5013
597.90 0.501
598.00 0.5007
598.10 0.5004
598.20 0.5
598.30 0.4997
598.40 0.4994
598.50 0.4991
598.60 0.4987
598.70 0.4984
598.80 0.4981
598.90 0.4978
599.00 0.4974
599.10 0.4971
599.20 0.4968
599.30 0.4965
599.40 0.4962
599.50 0.4958
599.60 0.4955
599.70 0.4952
599.80 0.4949
599.90 0.4946
600.00 0.4942
600.10 0.4939
600.20 0.4936
600.30 0.4933
600.40 0.493
600.50 0.4926
600.60 0.4923
600.70 0.492
600.80 0.4917
600.90 0.4914
601.00 0.4911
601.10 0.4907
601.20 0.4904
601.30 0.4901
601.40 0.4898
601.50 0.4895
601.60 0.4892
601.70 0.4888
601.80 0.4885
601.90 0.4882
602.00 0.4879
602.10 0.4876
602.20 0.4873
602.30 0.487
602.40 0.4866
602.50 0.4863
602.60 0.486
602.70 0.4857
602.80 0.4854
602.90 0.4851
603.00 0.4848
603.10 0.4845
603.20 0.4841
603.30 0.4838
603.40 0.4835
603.50 0.4832
603.60 0.4829
603.70 0.4826
603.80 0.4823
603.90 0.482
604.00 0.4817
604.10 0.4814
604.20 0.481
604.30 0.4807
604.40 0.4804
604.50 0.4801
604.60 0.4798
604.70 0.4795
604.80 0.4792
604.90 0.4789
605.00 0.4786
605.10 0.4783
605.20 0.478
605.30 0.4777
605.40 0.4774
605.50 0.477
605.60 0.4767
605.70 0.4764
605.80 0.4761
605.90 0.4758
606.00 0.4755
606.10 0.4752
606.20 0.4749
606.30 0.4746
606.40 0.4743
606.50 0.474
606.60 0.4737
606.70 0.4734
606.80 0.4731
606.90 0.4728
607.00 0.4725
607.10 0.4722
607.20 0.4719
607.30 0.4716
607.40 0.4713
607.50 0.471
607.60 0.4707
607.70 0.4704
607.80 0.4701
607.90 0.4698
608.00 0.4695
608.10 0.4692
608.20 0.4689
608.30 0.4686
608.40 0.4683
608.50 0.468
608.60 0.4677
608.70 0.4674
608.80 0.4671
608.90 0.4668
609.00 0.4665
609.10 0.4662
609.20 0.4659
609.30 0.4656
609.40 0.4653
609.50 0.465
609.60 0.4647
609.70 0.4644
609.80 0.4641
609.90 0.4638
610.00 0.4635
610.10 0.4632
610.20 0.4629
610.30 0.4626
610.40 0.4624
610.50 0.4621
610.60 0.4618
610.70 0.4615
610.80 0.4612
610.90 0.4609
611.00 0.4606
611.10 0.4603
611.20 0.46
611.30 0.4597
611.40 0.4594
611.50 0.4591
611.60 0.4588
611.70 0.4586
611.80 0.4583
611.90 0.458
612.00 0.4577
612.10 0.4574
612.20 0.4571
612.30 0.4568
612.40 0.4565
612.50 0.4562
612.60 0.4559
612.70 0.4557
612.80 0.4554
612.90 0.4551
613.00 0.4548
613.10 0.4545
613.20 0.4542
613.30 0.4539
613.40 0.4536
613.50 0.4533
613.60 0.4531
613.70 0.4528
613.80 0.4525
613.90 0.4522
614.00 0.4519
614.10 0.4516
614.20 0.4513
614.30 0.4511
614.40 0.4508
614.50 0.4505
614.60 0.4502
614.70 0.4499
614.80 0.4496
614.90 0.4494
615.00 0.4491
615.10 0.4488
615.20 0.4485
615.30 0.4482
615.40 0.4479
615.50 0.4477
615.60 0.4474
615.70 0.4471
615.80 0.4468
615.90 0.4465
616.00 0.4462
616.10 0.446
616.20 0.4457
616.30 0.4454
616.40 0.4451
616.50 0.4448
616.60 0.4446
616.70 0.4443
616.80 0.444
616.90 0.4437
617.00 0.4434
617.10 0.4432
617.20 0.4429
617.30 0.4426
617.40 0.4423
617.50 0.4421
617.60 0.4418
617.70 0.4415
617.80 0.4412
617.90 0.4409
618.00 0.4407
618.10 0.4404
618.20 0.4401
618.30 0.4398
618.40 0.4396
618.50 0.4393
618.60 0.439
618.70 0.4387
618.80 0.4385
618.90 0.4382
619.00 0.4379
619.10 0.4376
619.20 0.4374
619.30 0.4371
619.40 0.4368
619.50 0.4365
619.60 0.4363
619.70 0.436
619.80 0.4357
619.90 0.4354
620.00 0.4352
620.10 0.4349
620.20 0.4346
620.30 0.4343
620.40 0.4341
620.50 0.4338
620.60 0.4335
620.70 0.4333
620.80 0.433
620.90 0.4327
621.00 0.4324
621.10 0.4322
621.20 0.4319
621.30 0.4316
621.40 0.4314
621.50 0.4311
621.60 0.4308
621.70 0.4306
621.80 0.4303
621.90 0.43
622.00 0.4298
622.10 0.4295
622.20 0.4292
622.30 0.4289
622.40 0.4287
622.50 0.4284
622.60 0.4281
622.70 0.4279
622.80 0.4276
622.90 0.4273
623.00 0.4271
623.10 0.4268
623.20 0.4265
623.30 0.4263
623.40 0.426
623.50 0.4257
623.60 0.4255
623.70 0.4252
623.80 0.425
623.90 0.4247
624.00 0.4244
624.10 0.4242
624.20 0.4239
624.30 0.4236
624.40 0.4234
624.50 0.4231
624.60 0.4228
624.70 0.4226
624.80 0.4223
624.90 0.4221
625.00 0.4218
625.10 0.4215
625.20 0.4213
625.30 0.421
625.40 0.4207
625.50 0.4205
625.60 0.4202
625.70 0.42
625.80 0.4197
625.90 0.4194
626.00 0.4192
626.10 0.4189
626.20 0.4187
626.30 0.4184
626.40 0.4181
626.50 0.4179
626.60 0.4176
626.70 0.4174
626.80 0.4171
626.90 0.4168
627.00 0.4166
627.10 0.4163
627.20 0.4161
627.30 0.4158
627.40 0.4155
627.50 0.4153
627.60 0.415
627.70 0.4148
627.80 0.4145
627.90 0.4143
628.00 0.414
628.10 0.4137
628.20 0.4135
628.30 0.4132
628.40 0.413
628.50 0.4127
628.60 0.4125
628.70 0.4122
628.80 0.412
628.90 0.4117
629.00 0.4114
629.10 0.4112
629.20 0.4109
629.30 0.4107
629.40 0.4104
629.50 0.4102
629.60 0.4099
629.70 0.4097
629.80 0.4094
629.90 0.4092
630.00 0.4089
630.10 0.4087
630.20 0.4084
630.30 0.4081
630.40 0.4079
630.50 0.4076
630.60 0.4074
630.70 0.4071
630.80 0.4069
630.90 0.4066
631.00 0.4064
631.10 0.4061
631.20 0.4059
631.30 0.4056
631.40 0.4054
631.50 0.4051
631.60 0.4049
631.70 0.4046
631.80 0.4044
631.90 0.4041
632.00 0.4039
632.10 0.4036
632.20 0.4034
632.30 0.4031
632.40 0.4029
632.50 0.4026
632.60 0.4024
632.70 0.4021
632.80 0.4019
632.90 0.4016
633.00 0.4014
633.10 0.4012
633.20 0.4009
633.30 0.4007
633.40 0.4004
633.50 0.4002
633.60 0.3999
633.70 0.3997
633.80 0.3994
633.90 0.3992
634.00 0.3989
634.10 0.3987
634.20 0.3984
634.30 0.3982
634.40 0.398
634.50 0.3977
634.60 0.3975
634.70 0.3972
634.80 0.397
634.90 0.3967
635.00 0.3965
635.10 0.3962
635.20 0.396
635.30 0.3958
635.40 0.3955
635.50 0.3953
635.60 0.395
635.70 0.3948
635.80 0.3945
635.90 0.3943
636.00 0.394
636.10 0.3938
636.20 0.3936
636.30 0.3933
636.40 0.3931
636.50 0.3928
636.60 0.3926
636.70 0.3924
636.80 0.3921
636.90 0.3919
637.00 0.3916
637.10 0.3914
637.20 0.3911
637.30 0.3909
637.40 0.3907
637.50 0.3904
637.60 0.3902
637.70 0.3899
637.80 0.3897
637.90 0.3895
638.00 0.3892
638.10 0.389
638.20 0.3887
638.30 0.3885
638.40 0.3883
638.50 0.388
638.60 0.3878
638.70 0.3876
638.80 0.3873
638.90 0.3871
639.00 0.3868
639.10 0.3866
639.20 0.3864
639.30 0.3861
639.40 0.3859
639.50 0.3856
639.60 0.3854
639.70 0.3852
639.80 0.3849
639.90 0.3847
640.00 0.3845
640.10 0.3842
640.20 0.384
640.30 0.3837
640.40 0.3835
640.50 0.3833
640.60 0.383
640.70 0.3828
640.80 0.3826
640.90 0.3823
641.00 0.3821
641.10 0.3819
641.20 0.3816
641.30 0.3814
641.40 0.3811
641.50 0.3809
641.60 0.3807
641.70 0.3804
641.80 0.3802
641.90 0.38
642.00 0.3797
642.10 0.3795
642.20 0.3793
642.30 0.379
642.40 0.3788
642.50 0.3785
642.60 0.3783
642.70 0.3781
642.80 0.3778
642.90 0.3776
643.00 0.3774
643.10 0.3771
643.20 0.3769
643.30 0.3767
643.40 0.3764
643.50 0.3762
643.60 0.376
643.70 0.3757
643.80 0.3755
643.90 0.3752
644.00 0.375
644.10 0.3748
644.20 0.3745
644.30 0.3743
644.40 0.3741
644.50 0.3738
644.60 0.3736
644.70 0.3734
644.80 0.3731
644.90 0.3729
645.00 0.3726
645.10 0.3724
645.20 0.3722
645.30 0.3719
645.40 0.3717
645.50 0.3715
645.60 0.3712
645.70 0.371
645.80 0.3707
645.90 0.3705
646.00 0.3703
646.10 0.37
646.20 0.3698
646.30 0.3695
646.40 0.3693
646.50 0.3691
646.60 0.3688
646.70 0.3686
646.80 0.3683
646.90 0.3681
647.00 0.3678
647.10 0.3676
647.20 0.3674
647.30 0.3671
647.40 0.3669
647.50 0.3666
647.60 0.3664
647.70 0.3661
647.80 0.3659
647.90 0.3656
648.00 0.3654
648.10 0.3651
648.20 0.3649
648.30 0.3646
648.40 0.3644
648.50 0.3641
648.60 0.3638
648.70 0.3636
648.80 0.3633
648.90 0.3631
649.00 0.3628
649.10 0.3625
649.20 0.3623
649.30 0.362
649.40 0.3617
649.50 0.3615
649.60 0.3612
649.70 0.3609
649.80 0.3606
649.90 0.3603
650.00 0.3601
650.10 0.3598
650.20 0.3595
650.30 0.3592
650.40 0.3589
650.50 0.3586
650.60 0.3583
650.70 0.358
650.80 0.3577
650.90 0.3573
651.00 0.357
651.10 0.3567
651.20 0.3564
651.30 0.3561
651.40 0.3557
651.50 0.3554
651.60 0.355
651.70 0.3546
651.80 0.3543
651.90 0.3539
652.00 0.3535
652.10 0.3532
652.20 0.3528
652.30 0.3524
652.40 0.3519
652.50 0.3515
652.60 0.351
652.70 0.3505
652.80 0.3501
652.90 0.3496
653.00 0.3491
653.10 0.3487
653.20 0.3482
653.30 0.3477
653.40 0.3471
653.50 0.3465
653.60 0.3458
653.70 0.3452
653.80 0.3446
653.90 0.344
654.00 0.3433
654.10 0.3427
654.20 0.3421
654.30 0.3414
654.40 0.3406
654.50 0.3398
654.60 0.339
654.70 0.3383
654.80 0.3374
654.90 0.3365
655.00 0.3356
655.10 0.3347
655.20 0.3338
655.30 0.3329
655.40 0.3319
655.50 0.3309
655.60 0.3299
655.70 0.3288
655.80 0.3278
655.90 0.3268
656.00 0.3262
656.10 0.3261
656.20 0.3354
656.30 0.3469
656.40 0.3293
656.50 0.3251
656.60 0.3252
656.70 0.3255
656.80 0.3262
656.90 0.3269
657.00 0.3275
657.10 0.3282
657.20 0.3288
657.30 0.3293
657.40 0.3299
657.50 0.3304
657.60 0.3309
657.70 0.3314
657.80 0.3319
657.90 0.3323
658.00 0.3326
658.10 0.333
658.20 0.3334
658.30 0.3338
658.40 0.334
658.50 0.3342
658.60 0.3344
658.70 0.3346
658.80 0.3349
658.90 0.3351
659.00 0.3353
659.10 0.3355
659.20 0.3357
659.30 0.3359
659.40 0.336
659.50 0.336
659.60 0.3361
659.70 0.3361
659.80 0.3362
659.90 0.3362
660.00 0.3362
660.10 0.3363
660.20 0.3363
660.30 0.3364
660.40 0.3363
660.50 0.3363
660.60 0.3362
660.70 0.3362
660.80 0.3361
660.90 0.3361
661.00 0.336
661.10 0.336
661.20 0.3359
661.30 0.3359
661.40 0.3357
661.50 0.3356
661.60 0.3355
661.70 0.3354
661.80 0.3353
661.90 0.3352
662.00 0.3351
662.10 0.335
662.20 0.3349
662.30 0.3348
662.40 0.3346
662.50 0.3345
662.60 0.3344
662.70 0.3342
662.80 0.3341
662.90 0.3339
663.00 0.3338
663.10 0.3337
663.20 0.3335
663.30 0.3334
663.40 0.3332
663.50 0.3331
663.60 0.3329
663.70 0.3328
663.80 0.3326
663.90 0.3324
664.00 0.3323
664.10 0.3321
664.20 0.332
664.30 0.3318
664.40 0.3316
664.50 0.3315
664.60 0.3313
664.70 0.3311
664.80 0.331
664.90 0.3308
665.00 0.3306
665.10 0.3305
665.20 0.3303
665.30 0.3301
665.40 0.33
665.50 0.3298
665.60 0.3296
665.70 0.3294
665.80 0.3293
665.90 0.3291
666.00 0.3289
666.10 0.3287
666.20 0.3286
666.30 0.3284
666.40 0.3282
666.50 0.328
666.60 0.3279
666.70 0.3277
666.80 0.3275
666.90 0.3273
667.00 0.3271
667.10 0.327
667.20 0.3268
667.30 0.3266
667.40 0.3264
667.50 0.3263
667.60 0.3261
667.70 0.3259
667.80 0.3257
667.90 0.3255
668.00 0.3254
668.10 0.3252
668.20 0.325
668.30 0.3248
668.40 0.3246
668.50 0.3244
668.60 0.3243
668.70 0.3241
668.80 0.3239
668.90 0.3237
669.00 0.3235
669.10 0.3234
669.20 0.3232
669.30 0.323
669.40 0.3228
669.50 0.3226
669.60 0.3225
669.70 0.3223
669.80 0.3221
669.90 0.3219
670.00 0.3217
670.10 0.3216
670.20 0.3214
670.30 0.3212
670.40 0.321
670.50 0.3208
670.60 0.3206
670.70 0.3205
670.80 0.3203
670.90 0.3201
671.00 0.3199
671.10 0.3197
671.20 0.3196
671.30 0.3194
671.40 0.3192
671.50 0.319
671.60 0.3188
671.70 0.3187
671.80 0.3185
671.90 0.3183
672.00 0.3181
672.10 0.3179
672.20 0.3178
672.30 0.3176
672.40 0.3174
672.50 0.3172
672.60 0.317
672.70 0.3169
672.80 0.3167
672.90 0.3165
673.00 0.3163
673.10 0.3161
673.20 0.316
673.30 0.3158
673.40 0.3156
673.50 0.3154
673.60 0.3152
673.70 0.3151
673.80 0.3149
673.90 0.3147
674.00 0.3145
674.10 0.3143
674.20 0.3142
674.30 0.314
674.40 0.3138
674.50 0.3136
674.60 0.3134
674.70 0.3133
674.80 0.3131
674.90 0.3129
675.00 0.3127
675.10 0.3126
675.20 0.3124
675.30 0.3122
675.40 0.312
675.50 0.3118
675.60 0.3117
675.70 0.3115
675.80 0.3113
675.90 0.3111
676.00 0.311
676.10 0.3108
676.20 0.3106
676.30 0.3104
676.40 0.3102
676.50 0.3101
676.60 0.3099
676.70 0.3097
676.80 0.3095
676.90 0.3094
677.00 0.3092
677.10 0.309
677.20 0.3088
677.30 0.3087
677.40 0.3085
677.50 0.3083
677.60 0.3081
677.70 0.308
677.80 0.3078
677.90 0.3076
678.00 0.3074
678.10 0.3073
678.20 0.3071
678.30 0.3069
678.40 0.3067
678.50 0.3066
678.60 0.3064
678.70 0.3062
678.80 0.306
678.90 0.3059
679.00 0.3057
679.10 0.3055
679.20 0.3053
679.30 0.3052
679.40 0.305
679.50 0.3048
679.60 0.3046
679.70 0.3045
679.80 0.3043
679.90 0.3041
680.00 0.3039
680.10 0.3038
680.20 0.3036
680.30 0.3034
680.40 0.3033
680.50 0.3031
680.60 0.3029
680.70 0.3027
680.80 0.3026
680.90 0.3024
681.00 0.3022
681.10 0.3021
681.20 0.3019
681.30 0.3017
681.40 0.3015
681.50 0.3014
681.60 0.3012
681.70 0.301
681.80 0.3009
681.90 0.3007
682.00 0.3005
682.10 0.3003
682.20 0.3002
682.30 0.3
682.40 0.2998
682.50 0.2997
682.60 0.2995
682.70 0.2993
682.80 0.2991
682.90 0.299
683.00 0.2988
683.10 0.2986
683.20 0.2985
683.30 0.2983
683.40 0.2981
683.50 0.298
683.60 0.2978
683.70 0.2976
683.80 0.2975
683.90 0.2973
684.00 0.2971
684.10 0.297
684.20 0.2968
684.30 0.2966
684.40 0.2964
684.50 0.2963
684.60 0.2961
684.70 0.2959
684.80 0.2958
684.90 0.2956
685.00 0.2954
685.10 0.2953
685.20 0.2951
685.30 0.2949
685.40 0.2948
685.50 0.2946
685.60 0.2944
685.70 0.2943
685.80 0.2941
685.90 0.2939
686.00 0.2938
686.10 0.2936
686.20 0.2934
686.30 0.2933
686.40 0.2931
686.50 0.2929
686.60 0.2928
686.70 0.2926
686.80 0.2924
686.90 0.2923
687.00 0.2921
687.10 0.292
687.20 0.2918
687.30 0.2916
687.40 0.2915
687.50 0.2913
687.60 0.2911
687.70 0.291
687.80 0.2908
687.90 0.2906
688.00 0.2905
688.10 0.2903
688.20 0.2901
688.30 0.29
688.40 0.2898
688.50 0.2897
688.60 0.2895
688.70 0.2893
688.80 0.2892
688.90 0.289
689.00 0.2888
689.10 0.2887
689.20 0.2885
689.30 0.2884
689.40 0.2882
689.50 0.288
689.60 0.2879
689.70 0.2877
689.80 0.2875
689.90 0.2874
690.00 0.2872
690.10 0.2871
690.20 0.2869
690.30 0.2867
690.40 0.2866
690.50 0.2864
690.60 0.2863
690.70 0.2861
690.80 0.2859
690.90 0.2858
691.00 0.2856
691.10 0.2855
691.20 0.2853
691.30 0.2851
691.40 0.285
691.50 0.2848
691.60 0.2847
691.70 0.2845
691.80 0.2843
691.90 0.2842
692.00 0.284
692.10 0.2839
692.20 0.2837
692.30 0.2835
692.40 0.2834
692.50 0.2832
692.60 0.2831
692.70 0.2829
692.80 0.2827
692.90 0.2826
693.00 0.2824
693.10 0.2823
693.20 0.2821
693.30 0.282
693.40 0.2818
693.50 0.2816
693.60 0.2815
693.70 0.2813
693.80 0.2812
693.90 0.281
694.00 0.2808
694.10 0.2807
694.20 0.2805
694.30 0.2804
694.40 0.2802
694.50 0.2801
694.60 0.2799
694.70 0.2797
694.80 0.2796
694.90 0.2794
695.00 0.2793
695.10 0.2791
695.20 0.279
695.30 0.2788
695.40 0.2787
695.50 0.2785
695.60 0.2783
695.70 0.2782
695.80 0.278
695.90 0.2779
696.00 0.2777
696.10 0.2776
696.20 0.2774
696.30 0.2773
696.40 0.2771
696.50 0.277
696.60 0.2768
696.70 0.2766
696.80 0.2765
696.90 0.2763
697.00 0.2762
697.10 0.276
697.20 0.2759
697.30 0.2757
697.40 0.2756
697.50 0.2754
697.60 0.2753
697.70 0.2751
697.80 0.275
697.90 0.2748
698.00 0.2746
698.10 0.2745
698.20 0.2743
698.30 0.2742
698.40 0.274
698.50 0.2739
698.60 0.2737
698.70 0.2736
698.80 0.2734
698.90 0.2733
699.00 0.2731
699.10 0.273
699.20 0.2728
699.30 0.2727
699.40 0.2725
699.50 0.2724
699.60 0.2722
699.70 0.2721
699.80 0.2719
699.90 0.2718
700.00 0.2716
700.10 0.2715
700.20 0.2713
700.30 0.2712
700.40 0.271
700.50 0.2709
700.60 0.2707
700.70 0.2706
700.80 0.2704
700.90 0.2703
701.00 0.2701
701.10 0.27
701.20 0.2698
701.30 0.2697
701.40 0.2695
701.50 0.2694
701.60 0.2692
701.70 0.2691
701.80 0.2689
701.90 0.2688
702.00 0.2686
702.10 0.2685
702.20 0.2683
702.30 0.2682
702.40 0.268
702.50 0.2679
702.60 0.2677
702.70 0.2676
702.80 0.2674
702.90 0.2673
703.00 0.2671
703.10 0.267
703.20 0.2668
703.30 0.2667
703.40 0.2665
703.50 0.2664
703.60 0.2662
703.70 0.2661
703.80 0.266
703.90 0.2658
704.00 0.2657
704.10 0.2655
704.20 0.2654
704.30 0.2652
704.40 0.2651
704.50 0.2649
704.60 0.2648
704.70 0.2646
704.80 0.2645
704.90 0.2643
705.00 0.2642
705.10 0.264
705.20 0.2639
705.30 0.2638
705.40 0.2636
705.50 0.2635
705.60 0.2633
705.70 0.2632
705.80 0.263
705.90 0.2629
706.00 0.2627
706.10 0.2626
706.20 0.2625
706.30 0.2623
706.40 0.2622
706.50 0.262
706.60 0.2619
706.70 0.2617
706.80 0.2616
706.90 0.2615
707.00 0.2613
707.10 0.2612
707.20 0.261
707.30 0.2609
707.40 0.2607
707.50 0.2606
707.60 0.2604
707.70 0.2603
707.80 0.2602
707.90 0.26
708.00 0.2599
708.10 0.2597
708.20 0.2596
708.30 0.2594
708.40 0.2593
708.50 0.2592
708.60 0.259
708.70 0.2589
708.80 0.2587
708.90 0.2586
709.00 0.2584
709.10 0.2583
709.20 0.2582
709.30 0.258
709.40 0.2579
709.50 0.2577
709.60 0.2576
709.70 0.2575
709.80 0.2573
709.90 0.2572
710.00 0.257
710.10 0.2569
710.20 0.2568
710.30 0.2566
710.40 0.2565
710.50 0.2563
710.60 0.2562
710.70 0.2561
710.80 0.2559
710.90 0.2558
711.00 0.2556
711.10 0.2555
711.20 0.2554
711.30 0.2552
711.40 0.2551
711.50 0.2549
711.60 0.2548
711.70 0.2547
711.80 0.2545
711.90 0.2544
712.00 0.2542
712.10 0.2541
712.20 0.254
712.30 0.2538
712.40 0.2537
712.50 0.2536
712.60 0.2534
712.70 0.2533
712.80 0.2531
712.90 0.253
713.00 0.2529
713.10 0.2527
713.20 0.2526
713.30 0.2524
713.40 0.2523
713.50 0.2522
713.60 0.252
713.70 0.2519
713.80 0.2518
713.90 0.2516
714.00 0.2515
714.10 0.2513
714.20 0.2512
714.30 0.2511
714.40 0.2509
714.50 0.2508
714.60 0.2507
714.70 0.2505
714.80 0.2504
714.90 0.2502
715.00 0.2501
715.10 0.25
715.20 0.2498
715.30 0.2497
715.40 0.2496
715.50 0.2494
715.60 0.2493
715.70 0.2492
715.80 0.249
715.90 0.2489
716.00 0.2488
716.10 0.2486
716.20 0.2485
716.30 0.2484
716.40 0.2482
716.50 0.2481
716.60 0.248
716.70 0.2478
716.80 0.2477
716.90 0.2476
717.00 0.2474
717.10 0.2473
717.20 0.2471
717.30 0.247
717.40 0.2469
717.50 0.2467
717.60 0.2466
717.70 0.2465
717.80 0.2463
717.90 0.2462
718.00 0.2461
718.10 0.2459
718.20 0.2458
718.30 0.2457
718.40 0.2455
718.50 0.2454
718.60 0.2453
718.70 0.2451
718.80 0.245
718.90 0.2449
719.00 0.2447
719.10 0.2446
719.20 0.2445
719.30 0.2443
719.40 0.2442
719.50 0.2441
719.60 0.244
719.70 0.2438
719.80 0.2437
719.90 0.2436
720.00 0.2434
720.10 0.2433
720.20 0.2432
720.30 0.243
720.40 0.2429
720.50 0.2428
720.60 0.2426
720.70 0.2425
720.80 0.2424
720.90 0.2422
721.00 0.2421
721.10 0.242
721.20 0.2419
721.30 0.2417
721.40 0.2416
721.50 0.2415
721.60 0.2413
721.70 0.2412
721.80 0.2411
721.90 0.2409
722.00 0.2408
722.10 0.2407
722.20 0.2406
722.30 0.2404
722.40 0.2403
722.50 0.2402
722.60 0.24
722.70 0.2399
722.80 0.2398
722.90 0.2397
723.00 0.2395
723.10 0.2394
723.20 0.2393
723.30 0.2391
723.40 0.239
723.50 0.2389
723.60 0.2388
723.70 0.2386
723.80 0.2385
723.90 0.2384
724.00 0.2382
724.10 0.2381
724.20 0.238
724.30 0.2379
724.40 0.2377
724.50 0.2376
724.60 0.2375
724.70 0.2373
724.80 0.2372
724.90 0.2371
725.00 0.237
725.10 0.2368
725.20 0.2367
725.30 0.2366
725.40 0.2365
725.50 0.2363
725.60 0.2362
725.70 0.2361
725.80 0.2359
725.90 0.2358
726.00 0.2357
726.10 0.2356
726.20 0.2354
726.30 0.2353
726.40 0.2352
726.50 0.2351
726.60 0.2349
726.70 0.2348
726.80 0.2347
726.90 0.2346
727.00 0.2344
727.10 0.2343
727.20 0.2342
727.30 0.2341
727.40 0.2339
727.50 0.2338
727.60 0.2337
727.70 0.2336
727.80 0.2334
727.90 0.2333
728.00 0.2332
728.10 0.2331
728.20 0.2329
728.30 0.2328
728.40 0.2327
728.50 0.2326
728.60 0.2324
728.70 0.2323
728.80 0.2322
728.90 0.2321
729.00 0.2319
729.10 0.2318
729.20 0.2317
729.30 0.2316
729.40 0.2314
729.50 0.2313
729.60 0.2312
729.70 0.2311
729.80 0.231
729.90 0.2308
730.00 0.2307
730.10 0.2306
730.20 0.2305
730.30 0.2303
730.40 0.2302
730.50 0.2301
730.60 0.23
730.70 0.2299
730.80 0.2297
730.90 0.2296
731.00 0.2295
731.10 0.2294
731.20 0.2292
731.30 0.2291
731.40 0.229
731.50 0.2289
731.60 0.2288
731.70 0.2286
731.80 0.2285
731.90 0.2284
732.00 0.2283
732.10 0.2282
732.20 0.228
732.30 0.2279
732.40 0.2278
732.50 0.2277
732.60 0.2276
732.70 0.2274
732.80 0.2273
732.90 0.2272
733.00 0.2271
733.10 0.227
733.20 0.2268
733.30 0.2267
733.40 0.2266
733.50 0.2265
733.60 0.2264
733.70 0.2262
733.80 0.2261
733.90 0.226
734.00 0.2259
734.10 0.2258
734.20 0.2256
734.30 0.2255
734.40 0.2254
734.50 0.2253
734.60 0.2252
734.70 0.225
734.80 0.2249
734.90 0.2248
735.00 0.2247
735.10 0.2246
735.20 0.2244
735.30 0.2243
735.40 0.2242
735.50 0.2241
735.60 0.224
735.70 0.2239
735.80 0.2237
735.90 0.2236
736.00 0.2235
736.10 0.2234
736.20 0.2233
736.30 0.2231
736.40 0.223
736.50 0.2229
736.60 0.2228
736.70 0.2227
736.80 0.2226
736.90 0.2224
737.00 0.2223
737.10 0.2222
737.20 0.2221
737.30 0.222
737.40 0.2218
737.50 0.2217
737.60 0.2216
737.70 0.2215
737.80 0.2214
737.90 0.2213
738.00 0.2211
738.10 0.221
738.20 0.2209
738.30 0.2208
738.40 0.2207
738.50 0.2206
738.60 0.2204
738.70 0.2203
738.80 0.2202
738.90 0.2201
739.00 0.22
739.10 0.2199
739.20 0.2197
739.30 0.2196
739.40 0.2195
739.50 0.2194
739.60 0.2193
739.70 0.2192
739.80 0.219
739.90 0.2189
740.00 0.2188
740.10 0.2187
740.20 0.2186
740.30 0.2185
740.40 0.2184
740.50 0.2182
740.60 0.2181
740.70 0.218
740.80 0.2179
740.90 0.2178
741.00 0.2177
741.10 0.2176
741.20 0.2174
741.30 0.2173
741.40 0.2172
741.50 0.2171
741.60 0.217
741.70 0.2169
741.80 0.2168
741.90 0.2167
742.00 0.2165
742.10 0.2164
742.20 0.2163
742.30 0.2162
742.40 0.2161
742.50 0.216
742.60 0.2159
742.70 0.2157
742.80 0.2156
742.90 0.2155
743.00 0.2154
743.10 0.2153
743.20 0.2152
743.30 0.2151
743.40 0.215
743.50 0.2148
743.60 0.2147
743.70 0.2146
743.80 0.2145
743.90 0.2144
744.00 0.2143
744.10 0.2142
744.20 0.2141
744.30 0.214
744.40 0.2138
744.50 0.2137
744.60 0.2136
744.70 0.2135
744.80 0.2134
744.90 0.2133
745.00 0.2132
745.10 0.2131
745.20 0.213
745.30 0.2128
745.40 0.2127
745.50 0.2126
745.60 0.2125
745.70 0.2124
745.80 0.2123
745.90 0.2122
746.00 0.2121
746.10 0.212
746.20 0.2118
746.30 0.2117
746.40 0.2116
746.50 0.2115
746.60 0.2114
746.70 0.2113
746.80 0.2112
746.90 0.2111
747.00 0.211
747.10 0.2108
747.20 0.2107
747.30 0.2106
747.40 0.2105
747.50 0.2104
747.60 0.2103
747.70 0.2102
747.80 0.2101
747.90 0.21
748.00 0.2099
748.10 0.2097
748.20 0.2096
748.30 0.2095
748.40 0.2094
748.50 0.2093
748.60 0.2092
748.70 0.2091
748.80 0.209
748.90 0.2089
749.00 0.2088
749.10 0.2087
749.20 0.2085
749.30 0.2084
749.40 0.2083
749.50 0.2082
749.60 0.2081
749.70 0.208
749.80 0.2079
749.90 0.2078
750.00 0.2077
750.10 0.2076
750.20 0.2075
750.30 0.2073
750.40 0.2072
750.50 0.2071
750.60 0.207
750.70 0.2069
750.80 0.2068
750.90 0.2067
751.00 0.2066
751.10 0.2065
751.20 0.2064
751.30 0.2063
751.40 0.2062
751.50 0.2061
751.60 0.206
751.70 0.2059
751.80 0.2058
751.90 0.2056
752.00 0.2055
752.10 0.2054
752.20 0.2053
752.30 0.2052
752.40 0.2051
752.50 0.205
752.60 0.2049
752.70 0.2048
752.80 0.2047
752.90 0.2046
753.00 0.2045
753.10 0.2044
753.20 0.2043
753.30 0.2042
753.40 0.2041
753.50 0.204
753.60 0.2039
753.70 0.2038
753.80 0.2036
753.90 0.2035
754.00 0.2034
754.10 0.2033
754.20 0.2032
754.30 0.2031
754.40 0.203
754.50 0.2029
754.60 0.2028
754.70 0.2027
754.80 0.2026
754.90 0.2025
755.00 0.2024
755.10 0.2023
755.20 0.2022
755.30 0.2021
755.40 0.202
755.50 0.2019
755.60 0.2018
755.70 0.2017
755.80 0.2016
755.90 0.2015
756.00 0.2013
756.10 0.2012
756.20 0.2011
756.30 0.201
756.40 0.2009
756.50 0.2008
756.60 0.2007
756.70 0.2006
756.80 0.2005
756.90 0.2004
757.00 0.2003
757.10 0.2002
757.20 0.2001
757.30 0.2
757.40 0.1999
757.50 0.1998
757.60 0.1997
757.70 0.1996
757.80 0.1995
757.90 0.1994
758.00 0.1993
758.10 0.1992
758.20 0.1991
758.30 0.199
758.40 0.1989
758.50 0.1988
758.60 0.1987
758.70 0.1986
758.80 0.1985
758.90 0.1984
759.00 0.1983
759.10 0.1982
759.20 0.198
759.30 0.1979
759.40 0.1978
759.50 0.1977
759.60 0.1976
759.70 0.1975
759.80 0.1974
759.90 0.1973
760.00 0.1972
760.10 0.1971
760.20 0.197
760.30 0.1969
760.40 0.1968
760.50 0.1967
760.60 0.1966
760.70 0.1965
760.80 0.1964
760.90 0.1963
761.00 0.1962
761.10 0.1961
761.20 0.196
761.30 0.1959
761.40 0.1958
761.50 0.1957
761.60 0.1956
761.70 0.1955
761.80 0.1954
761.90 0.1953
762.00 0.1952
762.10 0.1951
762.20 0.195
762.30 0.1949
762.40 0.1948
762.50 0.1947
762.60 0.1946
762.70 0.1945
762.80 0.1944
762.90 0.1943
763.00 0.1942
763.10 0.1941
763.20 0.1941
763.30 0.194
763.40 0.1939
763.50 0.1938
763.60 0.1937
763.70 0.1936
763.80 0.1935
763.90 0.1934
764.00 0.1933
764.10 0.1932
764.20 0.1931
764.30 0.193
764.40 0.1929
764.50 0.1928
764.60 0.1927
764.70 0.1926
764.80 0.1925
764.90 0.1924
765.00 0.1923
765.10 0.1922
765.20 0.1921
765.30 0.192
765.40 0.1919
765.50 0.1918
765.60 0.1917
765.70 0.1916
765.80 0.1915
765.90 0.1914
766.00 0.1913
766.10 0.1912
766.20 0.1911
766.30 0.191
766.40 0.1909
766.50 0.1908
766.60 0.1907
766.70 0.1906
766.80 0.1905
766.90 0.1904
767.00 0.1903
767.10 0.1902
767.20 0.1901
767.30 0.19
767.40 0.1899
767.50 0.1898
767.60 0.1898
767.70 0.1897
767.80 0.1896
767.90 0.1895
768.00 0.1894
768.10 0.1893
768.20 0.1892
768.30 0.1891
768.40 0.189
768.50 0.1889
768.60 0.1888
768.70 0.1887
768.80 0.1886
768.90 0.1885
769.00 0.1884
769.10 0.1883
769.20 0.1882
769.30 0.1881
769.40 0.188
769.50 0.1879
769.60 0.1878
769.70 0.1877
769.80 0.1876
769.90 0.1875
770.00 0.1874
770.10 0.1873
770.20 0.1873
770.30 0.1872
770.40 0.1871
770.50 0.187
770.60 0.1869
770.70 0.1868
770.80 0.1867
770.90 0.1866
771.00 0.1865
771.10 0.1864
771.20 0.1863
771.30 0.1862
771.40 0.1861
771.50 0.186
771.60 0.1859
771.70 0.1859
771.80 0.1858
771.90 0.1857
772.00 0.1856
772.10 0.1855
772.20 0.1854
772.30 0.1853
772.40 0.1852
772.50 0.1851
772.60 0.185
772.70 0.1849
772.80 0.1848
772.90 0.1847
773.00 0.1846
773.10 0.1846
773.20 0.1845
773.30 0.1844
773.40 0.1843
773.50 0.1842
773.60 0.1841
773.70 0.184
773.80 0.1839
773.90 0.1838
774.00 0.1837
774.10 0.1836
774.20 0.1835
774.30 0.1834
774.40 0.1833
774.50 0.1833
774.60 0.1832
774.70 0.1831
774.80 0.183
774.90 0.1829
775.00 0.1828
775.10 0.1827
775.20 0.1826
775.30 0.1825
775.40 0.1824
775.50 0.1823
775.60 0.1822
775.70 0.1822
775.80 0.1821
775.90 0.182
776.00 0.1819
776.10 0.1818
776.20 0.1817
776.30 0.1816
776.40 0.1815
776.50 0.1814
776.60 0.1813
776.70 0.1812
776.80 0.1812
776.90 0.1811
777.00 0.181
777.10 0.1809
777.20 0.1808
777.30 0.1807
777.40 0.1806
777.50 0.1805
777.60 0.1804
777.70 0.1803
777.80 0.1802
777.90 0.1802
778.00 0.1801
778.10 0.18
778.20 0.1799
778.30 0.1798
778.40 0.1797
778.50 0.1796
778.60 0.1795
778.70 0.1794
778.80 0.1793
778.90 0.1792
779.00 0.1792
779.10 0.1791
779.20 0.179
779.30 0.1789
779.40 0.1788
779.50 0.1787
779.60 0.1786
779.70 0.1785
779.80 0.1784
779.90 0.1783
780.00 0.1783
780.10 0.1782
780.20 0.1781
780.30 0.178
780.40 0.1779
780.50 0.1778
780.60 0.1777
780.70 0.1776
780.80 0.1776
780.90 0.1775
781.00 0.1774
781.10 0.1773
781.20 0.1772
781.30 0.1771
781.40 0.177
781.50 0.1769
781.60 0.1768
781.70 0.1768
781.80 0.1767
781.90 0.1766
782.00 0.1765
782.10 0.1764
782.20 0.1763
782.30 0.1762
782.40 0.1761
782.50 0.1761
782.60 0.176
782.70 0.1759
782.80 0.1758
782.90 0.1757
783.00 0.1756
783.10 0.1755
783.20 0.1755
783.30 0.1754
783.40 0.1753
783.50 0.1752
783.60 0.1751
783.70 0.175
783.80 0.1749
783.90 0.1748
784.00 0.1748
784.10 0.1747
784.20 0.1746
784.30 0.1745
784.40 0.1744
784.50 0.1743
784.60 0.1742
784.70 0.1742
784.80 0.1741
784.90 0.174
785.00 0.1739
785.10 0.1738
785.20 0.1737
785.30 0.1736
785.40 0.1735
785.50 0.1735
785.60 0.1734
785.70 0.1733
785.80 0.1732
785.90 0.1731
786.00 0.173
786.10 0.1729
786.20 0.1729
786.30 0.1728
786.40 0.1727
786.50 0.1726
786.60 0.1725
786.70 0.1724
786.80 0.1723
786.90 0.1723
787.00 0.1722
787.10 0.1721
787.20 0.172
787.30 0.1719
787.40 0.1718
787.50 0.1717
787.60 0.1717
787.70 0.1716
787.80 0.1715
787.90 0.1714
788.00 0.1713
788.10 0.1712
788.20 0.1712
788.30 0.1711
788.40 0.171
788.50 0.1709
788.60 0.1708
788.70 0.1707
788.80 0.1706
788.90 0.1706
789.00 0.1705
789.10 0.1704
789.20 0.1703
789.30 0.1702
789.40 0.1701
789.50 0.17
789.60 0.17
789.70 0.1699
789.80 0.1698
789.90 0.1697
790.00 0.1696
790.10 0.1695
790.20 0.1695
790.30 0.1694
790.40 0.1693
790.50 0.1692
790.60 0.1691
790.70 0.169
790.80 0.169
790.90 0.1689
791.00 0.1688
791.10 0.1687
791.20 0.1686
791.30 0.1686
791.40 0.1685
791.50 0.1684
791.60 0.1683
791.70 0.1682
791.80 0.1681
791.90 0.1681
792.00 0.168
792.10 0.1679
792.20 0.1678
792.30 0.1677
792.40 0.1676
792.50 0.1676
792.60 0.1675
792.70 0.1674
792.80 0.1673
792.90 0.1672
793.00 0.1672
793.10 0.1671
793.20 0.167
793.30 0.1669
793.40 0.1668
793.50 0.1667
793.60 0.1667
793.70 0.1666
793.80 0.1665
793.90 0.1664
794.00 0.1663
794.10 0.1663
794.20 0.1662
794.30 0.1661
794.40 0.166
794.50 0.1659
794.60 0.1658
794.70 0.1658
794.80 0.1657
794.90 0.1656
795.00 0.1655
795.10 0.1654
795.20 0.1654
795.30 0.1653
795.40 0.1652
795.50 0.1651
795.60 0.165
795.70 0.165
795.80 0.1649
795.90 0.1648
796.00 0.1647
796.10 0.1646
796.20 0.1646
796.30 0.1645
796.40 0.1644
796.50 0.1643
796.60 0.1642
796.70 0.1642
796.80 0.1641
796.90 0.164
797.00 0.1639
797.10 0.1638
797.20 0.1637
797.30 0.1637
797.40 0.1636
797.50 0.1635
797.60 0.1634
797.70 0.1633
797.80 0.1633
797.90 0.1632
798.00 0.1631
798.10 0.163
798.20 0.1629
798.30 0.1629
798.40 0.1628
798.50 0.1627
798.60 0.1626
798.70 0.1625
798.80 0.1625
798.90 0.1624
799.00 0.1623
799.10 0.1622
799.20 0.1621
799.30 0.1621
799.40 0.162
799.50 0.1619
799.60 0.1618
799.70 0.1618
799.80 0.1617
799.90 0.1616
800.00 0.1615
800.10 0.1614
800.20 0.1614
800.30 0.1613
800.40 0.1612
800.50 0.1611
800.60 0.161
800.70 0.161
800.80 0.1609
800.90 0.1608
801.00 0.1607
801.10 0.1607
801.20 0.1606
801.30 0.1605
801.40 0.1604
801.50 0.1603
801.60 0.1603
801.70 0.1602
801.80 0.1601
801.90 0.16
802.00 0.16
802.10 0.1599
802.20 0.1598
802.30 0.1597
802.40 0.1597
802.50 0.1596
802.60 0.1595
802.70 0.1594
802.80 0.1593
802.90 0.1593
803.00 0.1592
803.10 0.1591
803.20 0.159
803.30 0.159
803.40 0.1589
803.50 0.1588
803.60 0.1587
803.70 0.1587
803.80 0.1586
803.90 0.1585
804.00 0.1584
804.10 0.1583
804.20 0.1583
804.30 0.1582
804.40 0.1581
804.50 0.158
804.60 0.158
804.70 0.1579
804.80 0.1578
804.90 0.1577
805.00 0.1577
805.10 0.1576
805.20 0.1575
805.30 0.1574
805.40 0.1574
805.50 0.1573
805.60 0.1572
805.70 0.1571
805.80 0.157
805.90 0.157
806.00 0.1569
806.10 0.1568
806.20 0.1567
806.30 0.1567
806.40 0.1566
806.50 0.1565
806.60 0.1564
806.70 0.1564
806.80 0.1563
806.90 0.1562
807.00 0.1561
807.10 0.1561
807.20 0.156
807.30 0.1559
807.40 0.1558
807.50 0.1558
807.60 0.1557
807.70 0.1556
807.80 0.1555
807.90 0.1555
808.00 0.1554
808.10 0.1553
808.20 0.1552
808.30 0.1552
808.40 0.1551
808.50 0.155
808.60 0.1549
808.70 0.1549
808.80 0.1548
808.90 0.1547
809.00 0.1546
809.10 0.1546
809.20 0.1545
809.30 0.1544
809.40 0.1543
809.50 0.1543
809.60 0.1542
809.70 0.1541
809.80 0.154
809.90 0.154
810.00 0.1539
810.10 0.1538
810.20 0.1537
810.30 0.1537
810.40 0.1536
810.50 0.1535
810.60 0.1534
810.70 0.1534
810.80 0.1533
810.90 0.1532
811.00 0.1531
811.10 0.1531
811.20 0.153
811.30 0.1529
811.40 0.1529
811.50 0.1528
811.60 0.1527
811.70 0.1526
811.80 0.1526
811.90 0.1525
812.00 0.1524
812.10 0.1523
812.20 0.1523
812.30 0.1522
812.40 0.1521
812.50 0.1521
812.60 0.152
812.70 0.1519
812.80 0.1518
812.90 0.1518
813.00 0.1517
813.10 0.1516
813.20 0.1515
813.30 0.1515
813.40 0.1514
813.50 0.1513
813.60 0.1513
813.70 0.1512
813.80 0.1511
813.90 0.151
814.00 0.151
814.10 0.1509
814.20 0.1508
814.30 0.1508
814.40 0.1507
814.50 0.1506
814.60 0.1505
814.70 0.1505
814.80 0.1504
814.90 0.1503
815.00 0.1502
815.10 0.1502
815.20 0.1501
815.30 0.15
815.40 0.15
815.50 0.1499
815.60 0.1498
815.70 0.1497
815.80 0.1497
815.90 0.1496
816.00 0.1495
816.10 0.1495
816.20 0.1494
816.30 0.1493
816.40 0.1492
816.50 0.1492
816.60 0.1491
816.70 0.149
816.80 0.149
816.90 0.1489
817.00 0.1488
817.10 0.1487
817.20 0.1487
817.30 0.1486
817.40 0.1485
817.50 0.1485
817.60 0.1484
817.70 0.1483
817.80 0.1482
817.90 0.1482
818.00 0.1481
818.10 0.148
818.20 0.148
818.30 0.1479
818.40 0.1478
818.50 0.1478
818.60 0.1477
818.70 0.1476
818.80 0.1475
818.90 0.1475
819.00 0.1474
819.10 0.1473
819.20 0.1473
819.30 0.1472
819.40 0.1471
819.50 0.147
819.60 0.147
819.70 0.1469
819.80 0.1468
819.90 0.1468
820.00 0.1467
820.10 0.1466
820.20 0.1466
820.30 0.1465
820.40 0.1464
820.50 0.1463
820.60 0.1463
820.70 0.1462
820.80 0.1461
820.90 0.1461
821.00 0.146
821.10 0.1459
821.20 0.1459
821.30 0.1458
821.40 0.1457
821.50 0.1457
821.60 0.1456
821.70 0.1455
821.80 0.1454
821.90 0.1454
822.00 0.1453
822.10 0.1452
822.20 0.1452
822.30 0.1451
822.40 0.145
822.50 0.145
822.60 0.1449
822.70 0.1448
822.80 0.1448
822.90 0.1447
823.00 0.1446
823.10 0.1446
823.20 0.1445
823.30 0.1444
823.40 0.1444
823.50 0.1443
823.60 0.1442
823.70 0.1441
823.80 0.1441
823.90 0.144
824.00 0.1439
824.10 0.1439
824.20 0.1438
824.30 0.1437
824.40 0.1437
824.50 0.1436
824.60 0.1435
824.70 0.1435
824.80 0.1434
824.90 0.1433
825.00 0.1433
825.10 0.1432
825.20 0.1431
825.30 0.1431
825.40 0.143
825.50 0.1429
825.60 0.1429
825.70 0.1428
825.80 0.1427
825.90 0.1427
826.00 0.1426
826.10 0.1425
826.20 0.1425
826.30 0.1424
826.40 0.1423
826.50 0.1422
826.60 0.1422
826.70 0.1421
826.80 0.142
826.90 0.142
827.00 0.1419
827.10 0.1418
827.20 0.1418
827.30 0.1417
827.40 0.1416
827.50 0.1416
827.60 0.1415
827.70 0.1414
827.80 0.1414
827.90 0.1413
828.00 0.1412
828.10 0.1412
828.20 0.1411
828.30 0.141
828.40 0.141
828.50 0.1409
828.60 0.1409
828.70 0.1408
828.80 0.1407
828.90 0.1407
829.00 0.1406
829.10 0.1405
829.20 0.1405
829.30 0.1404
829.40 0.1403
829.50 0.1403
829.60 0.1402
829.70 0.1401
829.80 0.1401
829.90 0.14
830.00 0.1399
830.10 0.1399
830.20 0.1398
830.30 0.1397
830.40 0.1397
830.50 0.1396
830.60 0.1395
830.70 0.1395
830.80 0.1394
830.90 0.1393
831.00 0.1393
831.10 0.1392
831.20 0.1391
831.30 0.1391
831.40 0.139
831.50 0.1389
831.60 0.1389
831.70 0.1388
831.80 0.1387
831.90 0.1387
832.00 0.1386
832.10 0.1386
832.20 0.1385
832.30 0.1384
832.40 0.1384
832.50 0.1383
832.60 0.1382
832.70 0.1382
832.80 0.1381
832.90 0.138
833.00 0.138
833.10 0.1379
833.20 0.1378
833.30 0.1378
833.40 0.1377
833.50 0.1376
833.60 0.1376
833.70 0.1375
833.80 0.1375
833.90 0.1374
834.00 0.1373
834.10 0.1373
834.20 0.1372
834.30 0.1371
834.40 0.1371
834.50 0.137
834.60 0.1369
834.70 0.1369
834.80 0.1368
834.90 0.1368
835.00 0.1367
835.10 0.1366
835.20 0.1366
835.30 0.1365
835.40 0.1364
835.50 0.1364
835.60 0.1363
835.70 0.1362
835.80 0.1362
835.90 0.1361
836.00 0.136
836.10 0.136
836.20 0.1359
836.30 0.1359
836.40 0.1358
836.50 0.1357
836.60 0.1357
836.70 0.1356
836.80 0.1355
836.90 0.1355
837.00 0.1354
837.10 0.1353
837.20 0.1353
837.30 0.1352
837.40 0.1352
837.50 0.1351
837.60 0.135
837.70 0.135
837.80 0.1349
837.90 0.1348
838.00 0.1348
838.10 0.1347
838.20 0.1347
838.30 0.1346
838.40 0.1345
838.50 0.1345
838.60 0.1344
838.70 0.1343
838.80 0.1343
838.90 0.1342
839.00 0.1342
839.10 0.1341
839.20 0.134
839.30 0.134
839.40 0.1339
839.50 0.1338
839.60 0.1338
839.70 0.1337
839.80 0.1337
839.90 0.1336
840.00 0.1335
840.10 0.1335
840.20 0.1334
840.30 0.1334
840.40 0.1333
840.50 0.1332
840.60 0.1332
840.70 0.1331
840.80 0.133
840.90 0.133
841.00 0.1329
841.10 0.1329
841.20 0.1328
841.30 0.1327
841.40 0.1327
841.50 0.1326
841.60 0.1325
841.70 0.1325
841.80 0.1324
841.90 0.1324
842.00 0.1323
842.10 0.1322
842.20 0.1322
842.30 0.1321
842.40 0.1321
842.50 0.132
842.60 0.1319
842.70 0.1319
842.80 0.1318
842.90 0.1318
843.00 0.1317
843.10 0.1316
843.20 0.1316
843.30 0.1315
843.40 0.1314
843.50 0.1314
843.60 0.1313
843.70 0.1313
843.80 0.1312
843.90 0.1311
844.00 0.1311
844.10 0.131
844.20 0.131
844.30 0.1309
844.40 0.1308
844.50 0.1308
844.60 0.1307
844.70 0.1307
844.80 0.1306
844.90 0.1305
845.00 0.1305
845.10 0.1304
845.20 0.1304
845.30 0.1303
845.40 0.1302
845.50 0.1302
845.60 0.1301
845.70 0.1301
845.80 0.13
845.90 0.1299
846.00 0.1299
846.10 0.1298
846.20 0.1298
846.30 0.1297
846.40 0.1296
846.50 0.1296
846.60 0.1295
846.70 0.1295
846.80 0.1294
846.90 0.1293
847.00 0.1293
847.10 0.1292
847.20 0.1292
847.30 0.1291
847.40 0.129
847.50 0.129
847.60 0.1289
847.70 0.1289
847.80 0.1288
847.90 0.1287
848.00 0.1287
848.10 0.1286
848.20 0.1286
848.30 0.1285
848.40 0.1284
848.50 0.1284
848.60 0.1283
848.70 0.1283
848.80 0.1282
848.90 0.1282
849.00 0.1281
849.10 0.128
849.20 0.128
849.30 0.1279
849.40 0.1279
849.50 0.1278
849.60 0.1277
849.70 0.1277
849.80 0.1276
849.90 0.1276
850.00 0.1275
850.10 0.1274
850.20 0.1274
850.30 0.1273
850.40 0.1273
850.50 0.1272
850.60 0.1272
850.70 0.1271
850.80 0.127
850.90 0.127
851.00 0.1269
851.10 0.1269
851.20 0.1268
851.30 0.1267
851.40 0.1267
851.50 0.1266
851.60 0.1266
851.70 0.1265
851.80 0.1265
851.90 0.1264
852.00 0.1263
852.10 0.1263
852.20 0.1262
852.30 0.1262
852.40 0.1261
852.50 0.1261
852.60 0.126
852.70 0.1259
852.80 0.1259
852.90 0.1258
853.00 0.1258
853.10 0.1257
853.20 0.1256
853.30 0.1256
853.40 0.1255
853.50 0.1255
853.60 0.1254
853.70 0.1254
853.80 0.1253
853.90 0.1252
854.00 0.1252
854.10 0.1251
854.20 0.1251
854.30 0.125
854.40 0.125
854.50 0.1249
854.60 0.1248
854.70 0.1248
854.80 0.1247
854.90 0.1247
855.00 0.1246
855.10 0.1246
855.20 0.1245
855.30 0.1244
855.40 0.1244
855.50 0.1243
855.60 0.1243
855.70 0.1242
855.80 0.1242
855.90 0.1241
856.00 0.1241
856.10 0.124
856.20 0.1239
856.30 0.1239
856.40 0.1238
856.50 0.1238
856.60 0.1237
856.70 0.1237
856.80 0.1236
856.90 0.1235
857.00 0.1235
857.10 0.1234
857.20 0.1234
857.30 0.1233
857.40 0.1233
857.50 0.1232
857.60 0.1232
857.70 0.1231
857.80 0.123
857.90 0.123
858.00 0.1229
858.10 0.1229
858.20 0.1228
858.30 0.1228
858.40 0.1227
858.50 0.1226
858.60 0.1226
858.70 0.1225
858.80 0.1225
858.90 0.1224
859.00 0.1224
859.10 0.1223
859.20 0.1223
859.30 0.1222
859.40 0.1221
859.50 0.1221
859.60 0.122
859.70 0.122
859.80 0.1219
859.90 0.1219
860.00 0.1218
860.10 0.1218
860.20 0.1217
860.30 0.1217
860.40 0.1216
860.50 0.1215
860.60 0.1215
860.70 0.1214
860.80 0.1214
860.90 0.1213
861.00 0.1213
861.10 0.1212
861.20 0.1212
861.30 0.1211
861.40 0.121
861.50 0.121
861.60 0.1209
861.70 0.1209
861.80 0.1208
861.90 0.1208
862.00 0.1207
862.10 0.1207
862.20 0.1206
862.30 0.1206
862.40 0.1205
862.50 0.1204
862.60 0.1204
862.70 0.1203
862.80 0.1203
862.90 0.1202
863.00 0.1202
863.10 0.1201
863.20 0.1201
863.30 0.12
863.40 0.12
863.50 0.1199
863.60 0.1198
863.70 0.1198
863.80 0.1197
863.90 0.1197
864.00 0.1196
864.10 0.1196
864.20 0.1195
864.30 0.1195
864.40 0.1194
864.50 0.1194
864.60 0.1193
864.70 0.1193
864.80 0.1192
864.90 0.1191
865.00 0.1191
865.10 0.119
865.20 0.119
865.30 0.1189
865.40 0.1189
865.50 0.1188
865.60 0.1188
865.70 0.1187
865.80 0.1187
865.90 0.1186
866.00 0.1186
866.10 0.1185
866.20 0.1184
866.30 0.1184
866.40 0.1183
866.50 0.1183
866.60 0.1182
866.70 0.1182
866.80 0.1181
866.90 0.1181
867.00 0.118
867.10 0.118
867.20 0.1179
867.30 0.1179
867.40 0.1178
867.50 0.1178
867.60 0.1177
867.70 0.1176
867.80 0.1176
867.90 0.1175
868.00 0.1175
868.10 0.1174
868.20 0.1174
868.30 0.1173
868.40 0.1173
868.50 0.1172
868.60 0.1172
868.70 0.1171
868.80 0.1171
868.90 0.117
869.00 0.117
869.10 0.1169
869.20 0.1169
869.30 0.1168
869.40 0.1168
869.50 0.1167
869.60 0.1167
869.70 0.1166
869.80 0.1165
869.90 0.1165
870.00 0.1164
870.10 0.1164
870.20 0.1163
870.30 0.1163
870.40 0.1162
870.50 0.1162
870.60 0.1161
870.70 0.1161
870.80 0.116
870.90 0.116
871.00 0.1159
871.10 0.1159
871.20 0.1158
871.30 0.1158
871.40 0.1157
871.50 0.1157
871.60 0.1156
871.70 0.1156
871.80 0.1155
871.90 0.1155
872.00 0.1154
872.10 0.1153
872.20 0.1153
872.30 0.1152
872.40 0.1152
872.50 0.1151
872.60 0.1151
872.70 0.115
872.80 0.115
872.90 0.1149
873.00 0.1149
873.10 0.1148
873.20 0.1148
873.30 0.1147
873.40 0.1147
873.50 0.1146
873.60 0.1146
873.70 0.1145
873.80 0.1145
873.90 0.1144
874.00 0.1144
874.10 0.1143
874.20 0.1143
874.30 0.1142
874.40 0.1142
874.50 0.1141
874.60 0.1141
874.70 0.114
874.80 0.114
874.90 0.1139
875.00 0.1139
875.10 0.1138
875.20 0.1138
875.30 0.1137
875.40 0.1137
875.50 0.1136
875.60 0.1136
875.70 0.1135
875.80 0.1135
875.90 0.1134
876.00 0.1134
876.10 0.1133
876.20 0.1133
876.30 0.1132
876.40 0.1132
876.50 0.1131
876.60 0.1131
876.70 0.113
876.80 0.113
876.90 0.1129
877.00 0.1129
877.10 0.1128
877.20 0.1128
877.30 0.1127
877.40 0.1127
877.50 0.1126
877.60 0.1126
877.70 0.1125
877.80 0.1125
877.90 0.1124
878.00 0.1124
878.10 0.1123
878.20 0.1123
878.30 0.1122
878.40 0.1122
878.50 0.1121
878.60 0.1121
878.70 0.112
878.80 0.112
878.90 0.1119
879.00 0.1119
879.10 0.1118
879.20 0.1118
879.30 0.1117
879.40 0.1117
879.50 0.1116
879.60 0.1116
879.70 0.1115
879.80 0.1115
879.90 0.1114
880.00 0.1114
880.10 0.1113
880.20 0.1113
880.30 0.1112
880.40 0.1112
880.50 0.1111
880.60 0.1111
880.70 0.111
880.80 0.111
880.90 0.1109
881.00 0.1109
881.10 0.1108
881.20 0.1108
881.30 0.1107
881.40 0.1107
881.50 0.1106
881.60 0.1106
881.70 0.1105
881.80 0.1105
881.90 0.1104
882.00 0.1104
882.10 0.1103
882.20 0.1103
882.30 0.1102
882.40 0.1102
882.50 0.1101
882.60 0.1101
882.70 0.11
882.80 0.11
882.90 0.1099
883.00 0.1099
883.10 0.1098
883.20 0.1098
883.30 0.1097
883.40 0.1097
883.50 0.1096
883.60 0.1096
883.70 0.1096
883.80 0.1095
883.90 0.1095
884.00 0.1094
884.10 0.1094
884.20 0.1093
884.30 0.1093
884.40 0.1092
884.50 0.1092
884.60 0.1091
884.70 0.1091
884.80 0.109
884.90 0.109
885.00 0.1089
885.10 0.1089
885.20 0.1088
885.30 0.1088
885.40 0.1087
885.50 0.1087
885.60 0.1086
885.70 0.1086
885.80 0.1085
885.90 0.1085
886.00 0.1084
886.10 0.1084
886.20 0.1084
886.30 0.1083
886.40 0.1083
886.50 0.1082
886.60 0.1082
886.70 0.1081
886.80 0.1081
886.90 0.108
887.00 0.108
887.10 0.1079
887.20 0.1079
887.30 0.1078
887.40 0.1078
887.50 0.1077
887.60 0.1077
887.70 0.1076
887.80 0.1076
887.90 0.1075
888.00 0.1075
888.10 0.1075
888.20 0.1074
888.30 0.1074
888.40 0.1073
888.50 0.1073
888.60 0.1072
888.70 0.1072
888.80 0.1071
888.90 0.1071
889.00 0.107
889.10 0.107
889.20 0.1069
889.30 0.1069
889.40 0.1068
889.50 0.1068
889.60 0.1067
889.70 0.1067
889.80 0.1067
889.90 0.1066
890.00 0.1066
890.10 0.1065
890.20 0.1065
890.30 0.1064
890.40 0.1064
890.50 0.1063
890.60 0.1063
890.70 0.1062
890.80 0.1062
890.90 0.1061
891.00 0.1061
891.10 0.106
891.20 0.106
891.30 0.106
891.40 0.1059
891.50 0.1059
891.60 0.1058
891.70 0.1058
891.80 0.1057
891.90 0.1057
892.00 0.1056
892.10 0.1056
892.20 0.1055
892.30 0.1055
892.40 0.1054
892.50 0.1054
892.60 0.1054
892.70 0.1053
892.80 0.1053
892.90 0.1052
893.00 0.1052
893.10 0.1051
893.20 0.1051
893.30 0.105
893.40 0.105
893.50 0.1049
893.60 0.1049
893.70 0.1048
893.80 0.1048
893.90 0.1048
894.00 0.1047
894.10 0.1047
894.20 0.1046
894.30 0.1046
894.40 0.1045
894.50 0.1045
894.60 0.1044
894.70 0.1044
894.80 0.1043
894.90 0.1043
895.00 0.1043
895.10 0.1042
895.20 0.1042
895.30 0.1041
895.40 0.1041
895.50 0.104
895.60 0.104
895.70 0.1039
895.80 0.1039
895.90 0.1038
896.00 0.1038
896.10 0.1038
896.20 0.1037
896.30 0.1037
896.40 0.1036
896.50 0.1036
896.60 0.1035
896.70 0.1035
896.80 0.1034
896.90 0.1034
897.00 0.1034
897.10 0.1033
897.20 0.1033
897.30 0.1032
897.40 0.1032
897.50 0.1031
897.60 0.1031
897.70 0.103
897.80 0.103
897.90 0.103
898.00 0.1029
898.10 0.1029
898.20 0.1028
898.30 0.1028
898.40 0.1027
898.50 0.1027
898.60 0.1026
898.70 0.1026
898.80 0.1026
898.90 0.1025
899.00 0.1025
899.10 0.1024
899.20 0.1024
899.30 0.1023
899.40 0.1023
899.50 0.1022
899.60 0.1022
899.70 0.1022
899.80 0.1021
899.90 0.1021
900.00 0.102
900.10 0.102
900.20 0.1019
900.30 0.1019
900.40 0.1018
900.50 0.1018
900.60 0.1018
900.70 0.1017
900.80 0.1017
900.90 0.1016
901.00 0.1016
901.10 0.1015
901.20 0.1015
901.30 0.1015
901.40 0.1014
901.50 0.1014
901.60 0.1013
901.70 0.1013
901.80 0.1012
901.90 0.1012
902.00 0.1011
902.10 0.1011
902.20 0.1011
902.30 0.101
902.40 0.101
902.50 0.1009
902.60 0.1009
902.70 0.1008
902.80 0.1008
902.90 0.1008
903.00 0.1007
903.10 0.1007
903.20 0.1006
903.30 0.1006
903.40 0.1005
903.50 0.1005
903.60 0.1004
903.70 0.1004
903.80 0.1004
903.90 0.1003
904.00 0.1003
904.10 0.1002
904.20 0.1002
904.30 0.1001
904.40 0.1001
904.50 0.1001
904.60 0.1
904.70 0.09997
904.80 0.09993
904.90 0.09988
905.00 0.09984
905.10 0.0998
905.20 0.09975
905.30 0.09971
905.40 0.09967
905.50 0.09963
905.60 0.09958
905.70 0.09954
905.80 0.0995
905.90 0.09945
906.00 0.09941
906.10 0.09937
906.20 0.09932
906.30 0.09928
906.40 0.09924
906.50 0.09919
906.60 0.09915
906.70 0.09911
906.80 0.09906
906.90 0.09902
907.00 0.09898
907.10 0.09894
907.20 0.09889
907.30 0.09885
907.40 0.09881
907.50 0.09877
907.60 0.09872
907.70 0.09868
907.80 0.09864
907.90 0.0986
908.00 0.09856
908.10 0.09851
908.20 0.09847
908.30 0.09843
908.40 0.09839
908.50 0.09834
908.60 0.0983
908.70 0.09826
908.80 0.09822
908.90 0.09818
909.00 0.09813
909.10 0.09809
909.20 0.09805
909.30 0.09801
909.40 0.09797
909.50 0.09792
909.60 0.09788
909.70 0.09784
909.80 0.0978
909.90 0.09776
910.00 0.09771
910.10 0.09767
910.20 0.09763
910.30 0.09759
910.40 0.09755
910.50 0.0975
910.60 0.09746
910.70 0.09742
910.80 0.09738
910.90 0.09734
911.00 0.0973
911.10 0.09725
911.20 0.09721
911.30 0.09717
911.40 0.09713
911.50 0.09709
911.60 0.09704
911.70 0.097
911.80 0.09696
911.90 0.09692
912.00 0.09688
912.10 0.09684
912.20 0.0968
912.30 0.09675
912.40 0.09671
912.50 0.09667
912.60 0.09663
912.70 0.09659
912.80 0.09655
912.90 0.09651
913.00 0.09647
913.10 0.09643
913.20 0.09638
913.30 0.09634
913.40 0.0963
913.50 0.09626
913.60 0.09622
913.70 0.09618
913.80 0.09614
913.90 0.0961
914.00 0.09606
914.10 0.09602
914.20 0.09598
914.30 0.09593
914.40 0.09589
914.50 0.09585
914.60 0.09581
914.70 0.09577
914.80 0.09573
914.90 0.09569
915.00 0.09565
915.10 0.09561
915.20 0.09557
915.30 0.09553
915.40 0.09549
915.50 0.09544
915.60 0.0954
915.70 0.09536
915.80 0.09532
915.90 0.09528
916.00 0.09524
916.10 0.0952
916.20 0.09516
916.30 0.09512
916.40 0.09508
916.50 0.09504
916.60 0.095
916.70 0.09496
916.80 0.09492
916.90 0.09488
917.00 0.09484
917.10 0.0948
917.20 0.09476
917.30 0.09472
917.40 0.09468
917.50 0.09464
917.60 0.0946
917.70 0.09456
917.80 0.09452
917.90 0.09448
918.00 0.09444
918.10 0.0944
918.20 0.09436
918.30 0.09432
918.40 0.09428
918.50 0.09424
918.60 0.0942
918.70 0.09416
918.80 0.09412
918.90 0.09409
919.00 0.09405
919.10 0.09401
919.20 0.09397
919.30 0.09393
919.40 0.09389
919.50 0.09385
919.60 0.09381
919.70 0.09377
919.80 0.09373
919.90 0.09369
920.00 0.09365
920.10 0.09361
920.20 0.09357
920.30 0.09353
920.40 0.0935
920.50 0.09346
920.60 0.09342
920.70 0.09338
920.80 0.09334
920.90 0.0933
921.00 0.09326
921.10 0.09322
921.20 0.09318
921.30 0.09314
921.40 0.0931
921.50 0.09307
921.60 0.09303
921.70 0.09299
921.80 0.09295
921.90 0.09291
922.00 0.09287
922.10 0.09283
922.20 0.09279
922.30 0.09275
922.40 0.09271
922.50 0.09267
922.60 0.09263
922.70 0.0926
922.80 0.09256
922.90 0.09252
923.00 0.09248
923.10 0.09244
923.20 0.0924
923.30 0.09236
923.40 0.09232
923.50 0.09228
923.60 0.09224
923.70 0.0922
923.80 0.09216
923.90 0.09212
924.00 0.09209
924.10 0.09205
924.20 0.09201
924.30 0.09197
924.40 0.09193
924.50 0.09189
924.60 0.09185
924.70 0.09181
924.80 0.09177
924.90 0.09173
925.00 0.0917
925.10 0.09166
925.20 0.09162
925.30 0.09158
925.40 0.09154
925.50 0.0915
925.60 0.09146
925.70 0.09142
925.80 0.09138
925.90 0.09135
926.00 0.09131
926.10 0.09127
926.20 0.09123
926.30 0.09119
926.40 0.09115
926.50 0.09111
926.60 0.09107
926.70 0.09104
926.80 0.091
926.90 0.09096
927.00 0.09092
927.10 0.09088
927.20 0.09084
927.30 0.09081
927.40 0.09077
927.50 0.09073
927.60 0.09069
927.70 0.09065
927.80 0.09062
927.90 0.09058
928.00 0.09054
928.10 0.0905
928.20 0.09046
928.30 0.09043
928.40 0.09039
928.50 0.09035
928.60 0.09031
928.70 0.09027
928.80 0.09024
928.90 0.0902
929.00 0.09016
929.10 0.09012
929.20 0.09009
929.30 0.09005
929.40 0.09001
929.50 0.08997
929.60 0.08993
929.70 0.0899
929.80 0.08986
929.90 0.08982
930.00 0.08978
930.10 0.08975
930.20 0.08971
930.30 0.08967
930.40 0.08963
930.50 0.0896
930.60 0.08956
930.70 0.08952
930.80 0.08948
930.90 0.08944
931.00 0.08941
931.10 0.08937
931.20 0.08933
931.30 0.08929
931.40 0.08926
931.50 0.08922
931.60 0.08918
931.70 0.08914
931.80 0.08911
931.90 0.08907
932.00 0.08903
932.10 0.089
932.20 0.08896
932.30 0.08892
932.40 0.08888
932.50 0.08885
932.60 0.08881
932.70 0.08877
932.80 0.08874
932.90 0.0887
933.00 0.08866
933.10 0.08862
933.20 0.08859
933.30 0.08855
933.40 0.08851
933.50 0.08848
933.60 0.08844
933.70 0.0884
933.80 0.08837
933.90 0.08833
934.00 0.08829
934.10 0.08825
934.20 0.08822
934.30 0.08818
934.40 0.08814
934.50 0.08811
934.60 0.08807
934.70 0.08803
934.80 0.088
934.90 0.08796
935.00 0.08792
935.10 0.08789
935.20 0.08785
935.30 0.08781
935.40 0.08778
935.50 0.08774
935.60 0.0877
935.70 0.08767
935.80 0.08763
935.90 0.08759
936.00 0.08756
936.10 0.08752
936.20 0.08748
936.30 0.08745
936.40 0.08741
936.50 0.08737
936.60 0.08734
936.70 0.0873
936.80 0.08727
936.90 0.08723
937.00 0.08719
937.10 0.08716
937.20 0.08712
937.30 0.08708
937.40 0.08705
937.50 0.08701
937.60 0.08697
937.70 0.08694
937.80 0.0869
937.90 0.08687
938.00 0.08683
938.10 0.08679
938.20 0.08676
938.30 0.08672
938.40 0.08668
938.50 0.08665
938.60 0.08661
938.70 0.08658
938.80 0.08654
938.90 0.0865
939.00 0.08647
939.10 0.08643
939.20 0.08639
939.30 0.08636
939.40 0.08632
939.50 0.08629
939.60 0.08625
939.70 0.08621
939.80 0.08618
939.90 0.08614
940.00 0.08611
940.10 0.08607
940.20 0.08603
940.30 0.086
940.40 0.08596
940.50 0.08593
940.60 0.08589
940.70 0.08586
940.80 0.08582
940.90 0.08578
941.00 0.08575
941.10 0.08571
941.20 0.08568
941.30 0.08564
941.40 0.0856
941.50 0.08557
941.60 0.08553
941.70 0.0855
941.80 0.08546
941.90 0.08543
942.00 0.08539
942.10 0.08535
942.20 0.08532
942.30 0.08528
942.40 0.08525
942.50 0.08521
942.60 0.08518
942.70 0.08514
942.80 0.08511
942.90 0.08507
943.00 0.08503
943.10 0.085
943.20 0.08496
943.30 0.08493
943.40 0.08489
943.50 0.08486
943.60 0.08482
943.70 0.08479
943.80 0.08475
943.90 0.08471
944.00 0.08468
944.10 0.08464
944.20 0.08461
944.30 0.08457
944.40 0.08454
944.50 0.0845
944.60 0.08447
944.70 0.08443
944.80 0.0844
944.90 0.08436
945.00 0.08433
945.10 0.08429
945.20 0.08426
945.30 0.08422
945.40 0.08419
945.50 0.08415
945.60 0.08412
945.70 0.08408
945.80 0.08405
945.90 0.08401
946.00 0.08398
946.10 0.08394
946.20 0.08391
946.30 0.08387
946.40 0.08384
946.50 0.0838
946.60 0.08377
946.70 0.08373
946.80 0.0837
946.90 0.08366
947.00 0.08363
947.10 0.08359
947.20 0.08356
947.30 0.08352
947.40 0.08349
947.50 0.08345
947.60 0.08342
947.70 0.08338
947.80 0.08335
947.90 0.08331
948.00 0.08328
948.10 0.08324
948.20 0.08321
948.30 0.08318
948.40 0.08314
948.50 0.08311
948.60 0.08307
948.70 0.08304
948.80 0.083
948.90 0.08297
949.00 0.08293
949.10 0.0829
949.20 0.08287
949.30 0.08283
949.40 0.0828
949.50 0.08276
949.60 0.08273
949.70 0.0827
949.80 0.08266
949.90 0.08263
950.00 0.08259
950.10 0.08256
950.20 0.08253
950.30 0.08249
950.40 0.08246
950.50 0.08243
950.60 0.08239
950.70 0.08236
950.80 0.08232
950.90 0.08229
951.00 0.08226
951.10 0.08222
951.20 0.08219
951.30 0.08216
951.40 0.08212
951.50 0.08209
951.60 0.08206
951.70 0.08202
951.80 0.08199
951.90 0.08196
952.00 0.08192
952.10 0.08189
952.20 0.08186
952.30 0.08183
952.40 0.08179
952.50 0.08176
952.60 0.08173
952.70 0.0817
952.80 0.08166
952.90 0.08163
953.00 0.0816
953.10 0.08157
953.20 0.08153
953.30 0.0815
953.40 0.08147
953.50 0.08144
953.60 0.08141
953.70 0.08138
953.80 0.08134
953.90 0.08131
954.00 0.08128
954.10 0.08125
954.20 0.08122
954.30 0.08119
954.40 0.08116
954.50 0.08113
954.60 0.0811
954.70 0.08106
954.80 0.08103
954.90 0.08099
955.00 0.08096
955.10 0.08092
955.20 0.08089
955.30 0.08085
955.40 0.08082
955.50 0.08078
955.60 0.08075
955.70 0.08071
955.80 0.08068
955.90 0.08064
956.00 0.08061
956.10 0.08058
956.20 0.08054
956.30 0.08051
956.40 0.08048
956.50 0.08044
956.60 0.08041
956.70 0.08037
956.80 0.08034
956.90 0.08031
957.00 0.08027
957.10 0.08024
957.20 0.08021
957.30 0.08017
957.40 0.08014
957.50 0.08011
957.60 0.08008
957.70 0.08004
957.80 0.08001
957.90 0.07998
958.00 0.07995
958.10 0.07991
958.20 0.07988
958.30 0.07985
958.40 0.07982
958.50 0.07978
958.60 0.07975
958.70 0.07972
958.80 0.07969
958.90 0.07965
959.00 0.07962
959.10 0.07959
959.20 0.07956
959.30 0.07952
959.40 0.07949
959.50 0.07946
959.60 0.07943
959.70 0.0794
959.80 0.07936
959.90 0.07933
960.00 0.0793
960.10 0.07927
960.20 0.07924
960.30 0.07921
960.40 0.07917
960.50 0.07914
960.60 0.07911
960.70 0.07908
960.80 0.07905
960.90 0.07902
961.00 0.07898
961.10 0.07895
961.20 0.07892
961.30 0.07889
961.40 0.07886
961.50 0.07883
961.60 0.07879
961.70 0.07876
961.80 0.07873
961.90 0.0787
962.00 0.07867
962.10 0.07864
962.20 0.07861
962.30 0.07858
962.40 0.07854
962.50 0.07851
962.60 0.07848
962.70 0.07845
962.80 0.07842
962.90 0.07839
963.00 0.07836
963.10 0.07833
963.20 0.07829
963.30 0.07826
963.40 0.07823
963.50 0.0782
963.60 0.07817
963.70 0.07814
963.80 0.07811
963.90 0.07808
964.00 0.07805
964.10 0.07801
964.20 0.07798
964.30 0.07795
964.40 0.07792
964.50 0.07789
964.60 0.07786
964.70 0.07783
964.80 0.0778
964.90 0.07777
965.00 0.07774
965.10 0.07771
965.20 0.07767
965.30 0.07764
965.40 0.07761
965.50 0.07758
965.60 0.07755
965.70 0.07752
965.80 0.07749
965.90 0.07746
966.00 0.07743
966.10 0.0774
966.20 0.07737
966.30 0.07734
966.40 0.0773
966.50 0.07727
966.60 0.07724
966.70 0.07721
966.80 0.07718
966.90 0.07715
967.00 0.07712
967.10 0.07709
967.20 0.07706
967.30 0.07703
967.40 0.077
967.50 0.07697
967.60 0.07694
967.70 0.07691
967.80 0.07688
967.90 0.07685
968.00 0.07682
968.10 0.07678
968.20 0.07675
968.30 0.07672
968.40 0.07669
968.50 0.07666
968.60 0.07663
968.70 0.0766
968.80 0.07657
968.90 0.07654
969.00 0.07651
969.10 0.07648
969.20 0.07645
969.30 0.07642
969.40 0.07639
969.50 0.07636
969.60 0.07633
969.70 0.0763
969.80 0.07627
969.90 0.07624
970.00 0.07621
970.10 0.07618
970.20 0.07615
970.30 0.07612
970.40 0.07609
970.50 0.07606
970.60 0.07602
970.70 0.07599
970.80 0.07596
970.90 0.07593
971.00 0.0759
971.10 0.07587
971.20 0.07584
971.30 0.07581
971.40 0.07578
971.50 0.07575
971.60 0.07572
971.70 0.07569
971.80 0.07566
971.90 0.07563
972.00 0.0756
972.10 0.07557
972.20 0.07554
972.30 0.07551
972.40 0.07548
972.50 0.07545
972.60 0.07542
972.70 0.07539
972.80 0.07536
972.90 0.07533
973.00 0.0753
973.10 0.07527
973.20 0.07524
973.30 0.07521
973.40 0.07518
973.50 0.07515
973.60 0.07512
973.70 0.07509
973.80 0.07506
973.90 0.07503
974.00 0.075
974.10 0.07497
974.20 0.07494
974.30 0.07491
974.40 0.07488
974.50 0.07485
974.60 0.07482
974.70 0.07479
974.80 0.07476
974.90 0.07473
975.00 0.0747
975.10 0.07467
975.20 0.07464
975.30 0.07461
975.40 0.07458
975.50 0.07455
975.60 0.07452
975.70 0.07449
975.80 0.07446
975.90 0.07444
976.00 0.07441
976.10 0.07438
976.20 0.07435
976.30 0.07432
976.40 0.07429
976.50 0.07426
976.60 0.07423
976.70 0.0742
976.80 0.07417
976.90 0.07414
977.00 0.07411
977.10 0.07408
977.20 0.07405
977.30 0.07402
977.40 0.07399
977.50 0.07396
977.60 0.07393
977.70 0.0739
977.80 0.07387
977.90 0.07384
978.00 0.07381
978.10 0.07378
978.20 0.07375
978.30 0.07372
978.40 0.07369
978.50 0.07367
978.60 0.07364
978.70 0.07361
978.80 0.07358
978.90 0.07355
979.00 0.07352
979.10 0.07349
979.20 0.07346
979.30 0.07343
979.40 0.0734
979.50 0.07337
979.60 0.07334
979.70 0.07331
979.80 0.07328
979.90 0.07325
980.00 0.07322
980.10 0.07319
980.20 0.07317
980.30 0.07314
980.40 0.07311
980.50 0.07308
980.60 0.07305
980.70 0.07302
980.80 0.07299
980.90 0.07296
981.00 0.07293
981.10 0.0729
981.20 0.07287
981.30 0.07284
981.40 0.07281
981.50 0.07278
981.60 0.07276
981.70 0.07273
981.80 0.0727
981.90 0.07267
982.00 0.07264
982.10 0.07261
982.20 0.07258
982.30 0.07255
982.40 0.07252
982.50 0.07249
982.60 0.07246
982.70 0.07243
982.80 0.07241
982.90 0.07238
983.00 0.07235
983.10 0.07232
983.20 0.07229
983.30 0.07226
983.40 0.07223
983.50 0.0722
983.60 0.07217
983.70 0.07214
983.80 0.07211
983.90 0.07209
984.00 0.07206
984.10 0.07203
984.20 0.072
984.30 0.07197
984.40 0.07194
984.50 0.07191
984.60 0.07188
984.70 0.07185
984.80 0.07182
984.90 0.0718
985.00 0.07177
985.10 0.07174
985.20 0.07171
985.30 0.07168
985.40 0.07165
985.50 0.07162
985.60 0.07159
985.70 0.07156
985.80 0.07153
985.90 0.07151
986.00 0.07148
986.10 0.07145
986.20 0.07142
986.30 0.07139
986.40 0.07136
986.50 0.07133
986.60 0.0713
986.70 0.07128
986.80 0.07125
986.90 0.07122
987.00 0.07119
987.10 0.07116
987.20 0.07113
987.30 0.0711
987.40 0.07107
987.50 0.07104
987.60 0.07102
987.70 0.07099
987.80 0.07096
987.90 0.07093
988.00 0.0709
988.10 0.07087
988.20 0.07084
988.30 0.07081
988.40 0.07079
988.50 0.07076
988.60 0.07073
988.70 0.0707
988.80 0.07067
988.90 0.07064
989.00 0.07061
989.10 0.07058
989.20 0.07056
989.30 0.07053
989.40 0.0705
989.50 0.07047
989.60 0.07044
989.70 0.07041
989.80 0.07038
989.90 0.07035
990.00 0.07033
990.10 0.0703
990.20 0.07027
990.30 0.07024
990.40 0.07021
990.50 0.07018
990.60 0.07015
990.70 0.07013
990.80 0.0701
990.90 0.07007
991.00 0.07004
991.10 0.07001
991.20 0.06998
991.30 0.06995
991.40 0.06993
991.50 0.0699
991.60 0.06987
991.70 0.06984
991.80 0.06981
991.90 0.06978
992.00 0.06975
992.10 0.06973
992.20 0.0697
992.30 0.06967
992.40 0.06964
992.50 0.06961
992.60 0.06958
992.70 0.06955
992.80 0.06952
992.90 0.0695
993.00 0.06947
993.10 0.06944
993.20 0.06941
993.30 0.06938
993.40 0.06935
993.50 0.06932
993.60 0.0693
993.70 0.06927
993.80 0.06924
993.90 0.06921
994.00 0.06918
994.10 0.06915
994.20 0.06913
994.30 0.0691
994.40 0.06907
994.50 0.06904
994.60 0.06901
994.70 0.06898
994.80 0.06895
994.90 0.06893
995.00 0.0689
995.10 0.06887
995.20 0.06884
995.30 0.06881
995.40 0.06878
995.50 0.06876
995.60 0.06873
995.70 0.0687
995.80 0.06867
995.90 0.06864
996.00 0.06861
996.10 0.06858
996.20 0.06856
996.30 0.06853
996.40 0.0685
996.50 0.06847
996.60 0.06844
996.70 0.06841
996.80 0.06839
996.90 0.06836
997.00 0.06833
997.10 0.0683
997.20 0.06827
997.30 0.06824
997.40 0.06822
997.50 0.06819
997.60 0.06816
997.70 0.06813
997.80 0.0681
997.90 0.06808
998.00 0.06805
998.10 0.06802
998.20 0.06799
998.30 0.06796
998.40 0.06794
998.50 0.06791
998.60 0.06788
998.70 0.06785
998.80 0.06782
998.90 0.0678
999.00 0.06777
999.10 0.06774
999.20 0.06771
999.30 0.06768
999.40 0.06766
999.50 0.06763
999.60 0.0676
999.70 0.06757
999.80 0.06754
999.90 0.06751
1000.00 0.06749
1000.10 0.06746
1000.20 0.06743
1000.30 0.0674
1000.40 0.06737
1000.50 0.06734
1000.60 0.06732
1000.70 0.06729
1000.80 0.06726
1000.90 0.06723
1001.00 0.0672
1001.10 0.06717
1001.20 0.06715
1001.30 0.06712
1001.40 0.06709
1001.50 0.06706
1001.60 0.06703
1001.70 0.06701
1001.80 0.06698
1001.90 0.06695
1002.00 0.06693
1002.10 0.0669
1002.20 0.06688
1002.30 0.06686
1002.40 0.06683
1002.50 0.06681
1002.60 0.06678
1002.70 0.06676
1002.80 0.06673
1002.90 0.06671
1003.00 0.06669
1003.10 0.06666
1003.20 0.06664
1003.30 0.06662
1003.40 0.0666
1003.50 0.06657
1003.60 0.06655
1003.70 0.06653
1003.80 0.06651
1003.90 0.06649
1004.00 0.06647
1004.10 0.06645
1004.20 0.06643
1004.30 0.06641
1004.40 0.06639
1004.50 0.06637
1004.60 0.06635
1004.70 0.06633
1004.80 0.0663
1004.90 0.06628
1005.00 0.06625
1005.10 0.06622
1005.20 0.06619
1005.30 0.06617
1005.40 0.06614
1005.50 0.06611
1005.60 0.06608
1005.70 0.06604
1005.80 0.06601
1005.90 0.06598
1006.00 0.06595
1006.10 0.06592
1006.20 0.06589
1006.30 0.06586
1006.40 0.06583
1006.50 0.0658
1006.60 0.06577
1006.70 0.06574
1006.80 0.06571
1006.90 0.06569
1007.00 0.06566
1007.10 0.06563
1007.20 0.0656
1007.30 0.06558
1007.40 0.06555
1007.50 0.06552
1007.60 0.0655
1007.70 0.06547
1007.80 0.06545
1007.90 0.06542
1008.00 0.0654
1008.10 0.06537
1008.20 0.06535
1008.30 0.06532
1008.40 0.0653
1008.50 0.06527
1008.60 0.06525
1008.70 0.06522
1008.80 0.0652
1008.90 0.06517
1009.00 0.06515
1009.10 0.06512
1009.20 0.0651
1009.30 0.06507
1009.40 0.06505
1009.50 0.06502
1009.60 0.065
1009.70 0.06497
1009.80 0.06495
1009.90 0.06493
1010.00 0.0649
1010.10 0.06488
1010.20 0.06486
1010.30 0.06483
1010.40 0.06481
1010.50 0.06478
1010.60 0.06476
1010.70 0.06474
1010.80 0.06471
1010.90 0.06469
1011.00 0.06467
1011.10 0.06464
1011.20 0.06462
1011.30 0.0646
1011.40 0.06457
1011.50 0.06455
1011.60 0.06452
1011.70 0.0645
1011.80 0.06448
1011.90 0.06445
1012.00 0.06443
1012.10 0.06441
1012.20 0.06438
1012.30 0.06436
1012.40 0.06434
1012.50 0.06431
1012.60 0.06429
1012.70 0.06427
1012.80 0.06424
1012.90 0.06422
1013.00 0.0642
1013.10 0.06417
1013.20 0.06415
1013.30 0.06413
1013.40 0.0641
1013.50 0.06408
1013.60 0.06406
1013.70 0.06403
1013.80 0.06401
1013.90 0.06399
1014.00 0.06397
1014.10 0.06394
1014.20 0.06392
1014.30 0.0639
1014.40 0.06387
1014.50 0.06385
1014.60 0.06383
1014.70 0.0638
1014.80 0.06378
1014.90 0.06376
1015.00 0.06373
1015.10 0.06371
1015.20 0.06369
1015.30 0.06366
1015.40 0.06364
1015.50 0.06362
1015.60 0.06359
1015.70 0.06357
1015.80 0.06355
1015.90 0.06352
1016.00 0.0635
1016.10 0.06348
1016.20 0.06345
1016.30 0.06343
1016.40 0.06341
1016.50 0.06339
1016.60 0.06336
1016.70 0.06334
1016.80 0.06332
1016.90 0.06329
1017.00 0.06327
1017.10 0.06325
1017.20 0.06322
1017.30 0.0632
1017.40 0.06318
1017.50 0.06315
1017.60 0.06313
1017.70 0.06311
1017.80 0.06308
1017.90 0.06306
1018.00 0.06304
1018.10 0.06301
1018.20 0.06299
1018.30 0.06297
1018.40 0.06294
1018.50 0.06292
1018.60 0.0629
1018.70 0.06287
1018.80 0.06285
1018.90 0.06283
1019.00 0.06281
1019.10 0.06278
1019.20 0.06276
1019.30 0.06274
1019.40 0.06271
1019.50 0.06269
1019.60 0.06267
1019.70 0.06264
1019.80 0.06262
1019.90 0.0626
1020.00 0.06257
1020.10 0.06255
1020.20 0.06253
1020.30 0.0625
1020.40 0.06248
1020.50 0.06246
1020.60 0.06244
1020.70 0.06241
1020.80 0.06239
1020.90 0.06237
1021.00 0.06234
1021.10 0.06232
1021.20 0.0623
1021.30 0.06227
1021.40 0.06225
1021.50 0.06223
1021.60 0.0622
1021.70 0.06218
1021.80 0.06216
1021.90 0.06214
1022.00 0.06211
1022.10 0.06209
1022.20 0.06207
1022.30 0.06204
1022.40 0.06202
1022.50 0.062
1022.60 0.06197
1022.70 0.06195
1022.80 0.06193
1022.90 0.0619
1023.00 0.06188
1023.10 0.06186
1023.20 0.06184
1023.30 0.06181
1023.40 0.06179
1023.50 0.06177
1023.60 0.06174
1023.70 0.06172
1023.80 0.0617
1023.90 0.06167
1024.00 0.06165
1024.10 0.06163
1024.20 0.06161
1024.30 0.06158
1024.40 0.06156
1024.50 0.06154
1024.60 0.06151
1024.70 0.06149
1024.80 0.06147
1024.90 0.06145
1025.00 0.06142
1025.10 0.0614
1025.20 0.06138
1025.30 0.06135
1025.40 0.06133
1025.50 0.06131
1025.60 0.06128
1025.70 0.06126
1025.80 0.06124
1025.90 0.06122
1026.00 0.06119
1026.10 0.06117
1026.20 0.06115
1026.30 0.06112
1026.40 0.0611
1026.50 0.06108
1026.60 0.06106
1026.70 0.06103
1026.80 0.06101
1026.90 0.06099
1027.00 0.06096
1027.10 0.06094
1027.20 0.06092
1027.30 0.0609
1027.40 0.06087
1027.50 0.06085
1027.60 0.06083
1027.70 0.06081
1027.80 0.06078
1027.90 0.06076
1028.00 0.06074
1028.10 0.06071
1028.20 0.06069
1028.30 0.06067
1028.40 0.06065
1028.50 0.06062
1028.60 0.0606
1028.70 0.06058
1028.80 0.06056
1028.90 0.06053
1029.00 0.06051
1029.10 0.06049
1029.20 0.06046
1029.30 0.06044
1029.40 0.06042
1029.50 0.0604
1029.60 0.06037
1029.70 0.06035
1029.80 0.06033
1029.90 0.06031
1030.00 0.06028
1030.10 0.06026
1030.20 0.06024
1030.30 0.06022
1030.40 0.06019
1030.50 0.06017
1030.60 0.06015
1030.70 0.06013
1030.80 0.0601
1030.90 0.06008
1031.00 0.06006
1031.10 0.06004
1031.20 0.06001
1031.30 0.05999
1031.40 0.05997
1031.50 0.05995
1031.60 0.05992
1031.70 0.0599
1031.80 0.05988
1031.90 0.05986
1032.00 0.05983
1032.10 0.05981
1032.20 0.05979
1032.30 0.05977
1032.40 0.05974
1032.50 0.05972
1032.60 0.0597
1032.70 0.05968
1032.80 0.05965
1032.90 0.05963
1033.00 0.05961
1033.10 0.05959
1033.20 0.05956
1033.30 0.05954
1033.40 0.05952
1033.50 0.0595
1033.60 0.05948
1033.70 0.05945
1033.80 0.05943
1033.90 0.05941
1034.00 0.05939
1034.10 0.05936
1034.20 0.05934
1034.30 0.05932
1034.40 0.0593
1034.50 0.05928
1034.60 0.05925
1034.70 0.05923
1034.80 0.05921
1034.90 0.05919
1035.00 0.05916
1035.10 0.05914
1035.20 0.05912
1035.30 0.0591
1035.40 0.05908
1035.50 0.05905
1035.60 0.05903
1035.70 0.05901
1035.80 0.05899
1035.90 0.05896
1036.00 0.05894
1036.10 0.05892
1036.20 0.0589
1036.30 0.05888
1036.40 0.05885
1036.50 0.05883
1036.60 0.05881
1036.70 0.05879
1036.80 0.05877
1036.90 0.05874
1037.00 0.05872
1037.10 0.0587
1037.20 0.05868
1037.30 0.05866
1037.40 0.05863
1037.50 0.05861
1037.60 0.05859
1037.70 0.05857
1037.80 0.05855
1037.90 0.05852
1038.00 0.0585
1038.10 0.05848
1038.20 0.05846
1038.30 0.05844
1038.40 0.05841
1038.50 0.05839
1038.60 0.05837
1038.70 0.05835
1038.80 0.05833
1038.90 0.05831
1039.00 0.05828
1039.10 0.05826
1039.20 0.05824
1039.30 0.05822
1039.40 0.0582
1039.50 0.05817
1039.60 0.05815
1039.70 0.05813
1039.80 0.05811
1039.90 0.05809
1040.00 0.05807
1040.10 0.05804
1040.20 0.05802
1040.30 0.058
1040.40 0.05798
1040.50 0.05796
1040.60 0.05794
1040.70 0.05791
1040.80 0.05789
1040.90 0.05787
1041.00 0.05785
1041.10 0.05783
1041.20 0.0578
1041.30 0.05778
1041.40 0.05776
1041.50 0.05774
1041.60 0.05772
1041.70 0.0577
1041.80 0.05768
1041.90 0.05765
1042.00 0.05763
1042.10 0.05761
1042.20 0.05759
1042.30 0.05757
1042.40 0.05755
1042.50 0.05752
1042.60 0.0575
1042.70 0.05748
1042.80 0.05746
1042.90 0.05744
1043.00 0.05742
1043.10 0.0574
1043.20 0.05737
1043.30 0.05735
1043.40 0.05733
1043.50 0.05731
1043.60 0.05729
1043.70 0.05727
1043.80 0.05725
1043.90 0.05722
1044.00 0.0572
1044.10 0.05718
1044.20 0.05716
1044.30 0.05714
1044.40 0.05712
1044.50 0.0571
1044.60 0.05707
1044.70 0.05705
1044.80 0.05703
1044.90 0.05701
1045.00 0.05699
1045.10 0.05697
1045.20 0.05695
1045.30 0.05693
1045.40 0.0569
1045.50 0.05688
1045.60 0.05686
1045.70 0.05684
1045.80 0.05682
1045.90 0.0568
1046.00 0.05678
1046.10 0.05676
1046.20 0.05673
1046.30 0.05671
1046.40 0.05669
1046.50 0.05667
1046.60 0.05665
1046.70 0.05663
1046.80 0.05661
1046.90 0.05659
1047.00 0.05656
1047.10 0.05654
1047.20 0.05652
1047.30 0.0565
1047.40 0.05648
1047.50 0.05646
1047.60 0.05644
1047.70 0.05642
1047.80 0.0564
1047.90 0.05638
1048.00 0.05635
1048.10 0.05633
1048.20 0.05631
1048.30 0.05629
1048.40 0.05627
1048.50 0.05625
1048.60 0.05623
1048.70 0.05621
1048.80 0.05619
1048.90 0.05617
1049.00 0.05614
1049.10 0.05612
1049.20 0.0561
1049.30 0.05608
1049.40 0.05606
1049.50 0.05604
1049.60 0.05602
1049.70 0.056
1049.80 0.05598
1049.90 0.05596
1050.00 0.05594
1050.10 0.05591
1050.20 0.05589
1050.30 0.05587
1050.40 0.05585
1050.50 0.05583
1050.60 0.05581
1050.70 0.05579
1050.80 0.05577
1050.90 0.05575
1051.00 0.05573
1051.10 0.05571
1051.20 0.05569
1051.30 0.05567
1051.40 0.05564
1051.50 0.05562
1051.60 0.0556
1051.70 0.05558
1051.80 0.05556
1051.90 0.05554
1052.00 0.05552
1052.10 0.0555
1052.20 0.05548
1052.30 0.05546
1052.40 0.05544
1052.50 0.05542
1052.60 0.0554
1052.70 0.05538
1052.80 0.05536
1052.90 0.05533
1053.00 0.05531
1053.10 0.05529
1053.20 0.05527
1053.30 0.05525
1053.40 0.05523
1053.50 0.05521
1053.60 0.05519
1053.70 0.05517
1053.80 0.05515
1053.90 0.05513
1054.00 0.05511
1054.10 0.05509
1054.20 0.05507
1054.30 0.05505
1054.40 0.05503
1054.50 0.05501
1054.60 0.05499
1054.70 0.05497
1054.80 0.05494
1054.90 0.05492
1055.00 0.0549
1055.10 0.05488
1055.20 0.05486
1055.30 0.05484
1055.40 0.05482
1055.50 0.0548
1055.60 0.05478
1055.70 0.05476
1055.80 0.05474
1055.90 0.05472
1056.00 0.0547
1056.10 0.05468
1056.20 0.05466
1056.30 0.05464
1056.40 0.05462
1056.50 0.0546
1056.60 0.05458
1056.70 0.05456
1056.80 0.05454
1056.90 0.05452
1057.00 0.0545
1057.10 0.05448
1057.20 0.05446
1057.30 0.05444
1057.40 0.05442
1057.50 0.0544
1057.60 0.05438
1057.70 0.05436
1057.80 0.05434
1057.90 0.05432
1058.00 0.05429
1058.10 0.05427
1058.20 0.05425
1058.30 0.05423
1058.40 0.05421
1058.50 0.05419
1058.60 0.05417
1058.70 0.05415
1058.80 0.05413
1058.90 0.05411
1059.00 0.05409
1059.10 0.05407
1059.20 0.05405
1059.30 0.05403
1059.40 0.05401
1059.50 0.05399
1059.60 0.05397
1059.70 0.05395
1059.80 0.05393
1059.90 0.05391
1060.00 0.05389
1060.10 0.05387
1060.20 0.05385
1060.30 0.05383
1060.40 0.05381
1060.50 0.05379
1060.60 0.05377
1060.70 0.05375
1060.80 0.05373
1060.90 0.05371
1061.00 0.05369
1061.10 0.05367
1061.20 0.05365
1061.30 0.05363
1061.40 0.05361
1061.50 0.05359
1061.60 0.05357
1061.70 0.05355
1061.80 0.05353
1061.90 0.05351
1062.00 0.05349
1062.10 0.05347
1062.20 0.05345
1062.30 0.05343
1062.40 0.05341
1062.50 0.0534
1062.60 0.05338
1062.70 0.05336
1062.80 0.05334
1062.90 0.05332
1063.00 0.0533
1063.10 0.05328
1063.20 0.05326
1063.30 0.05324
1063.40 0.05322
1063.50 0.0532
1063.60 0.05318
1063.70 0.05316
1063.80 0.05314
1063.90 0.05312
1064.00 0.0531
1064.10 0.05308
1064.20 0.05306
1064.30 0.05304
1064.40 0.05302
1064.50 0.053
1064.60 0.05298
1064.70 0.05296
1064.80 0.05294
1064.90 0.05292
1065.00 0.0529
1065.10 0.05288
1065.20 0.05286
1065.30 0.05284
1065.40 0.05282
1065.50 0.0528
1065.60 0.05278
1065.70 0.05276
1065.80 0.05274
1065.90 0.05273
1066.00 0.05271
1066.10 0.05269
1066.20 0.05267
1066.30 0.05265
1066.40 0.05263
1066.50 0.05261
1066.60 0.05259
1066.70 0.05257
1066.80 0.05255
1066.90 0.05253
1067.00 0.05251
1067.10 0.05249
1067.20 0.05247
1067.30 0.05245
1067.40 0.05243
1067.50 0.05241
1067.60 0.05239
1067.70 0.05237
1067.80 0.05235
1067.90 0.05233
1068.00 0.05231
1068.10 0.0523
1068.20 0.05228
1068.30 0.05226
1068.40 0.05224
1068.50 0.05222
1068.60 0.0522
1068.70 0.05218
1068.80 0.05216
1068.90 0.05214
1069.00 0.05212
1069.10 0.0521
1069.20 0.05208
1069.30 0.05206
1069.40 0.05204
1069.50 0.05202
1069.60 0.052
1069.70 0.05198
1069.80 0.05196
1069.90 0.05195
1070.00 0.05193
1070.10 0.05191
1070.20 0.05189
1070.30 0.05187
1070.40 0.05185
1070.50 0.05183
1070.60 0.05181
1070.70 0.05179
1070.80 0.05177
1070.90 0.05175
1071.00 0.05173
1071.10 0.05171
1071.20 0.05169
1071.30 0.05167
1071.40 0.05166
1071.50 0.05164
1071.60 0.05162
1071.70 0.0516
1071.80 0.05158
1071.90 0.05156
1072.00 0.05154
1072.10 0.05152
1072.20 0.0515
1072.30 0.05148
1072.40 0.05146
1072.50 0.05144
1072.60 0.05142
1072.70 0.0514
1072.80 0.05139
1072.90 0.05137
1073.00 0.05135
1073.10 0.05133
1073.20 0.05131
1073.30 0.05129
1073.40 0.05127
1073.50 0.05125
1073.60 0.05123
1073.70 0.05121
1073.80 0.05119
1073.90 0.05117
1074.00 0.05115
1074.10 0.05113
1074.20 0.05112
1074.30 0.0511
1074.40 0.05108
1074.50 0.05106
1074.60 0.05104
1074.70 0.05102
1074.80 0.051
1074.90 0.05098
1075.00 0.05096
1075.10 0.05094
1075.20 0.05092
1075.30 0.0509
1075.40 0.05088
1075.50 0.05086
1075.60 0.05085
1075.70 0.05083
1075.80 0.05081
1075.90 0.05079
1076.00 0.05077
1076.10 0.05075
1076.20 0.05073
1076.30 0.05071
1076.40 0.05069
1076.50 0.05067
1076.60 0.05065
1076.70 0.05063
1076.80 0.05061
1076.90 0.0506
1077.00 0.05058
1077.10 0.05056
1077.20 0.05054
1077.30 0.05052
1077.40 0.0505
1077.50 0.05048
1077.60 0.05046
1077.70 0.05044
1077.80 0.05042
1077.90 0.0504
1078.00 0.05038
1078.10 0.05036
1078.20 0.05034
1078.30 0.05033
1078.40 0.05031
1078.50 0.05029
1078.60 0.05027
1078.70 0.05025
1078.80 0.05023
1078.90 0.05021
1079.00 0.05019
1079.10 0.05017
1079.20 0.05015
1079.30 0.05013
1079.40 0.05011
1079.50 0.05009
1079.60 0.05007
1079.70 0.05005
1079.80 0.05004
1079.90 0.05002
1080.00 0.05
1080.10 0.04998
1080.20 0.04996
1080.30 0.04994
1080.40 0.04992
1080.50 0.0499
1080.60 0.04988
1080.70 0.04986
1080.80 0.04984
1080.90 0.04982
1081.00 0.0498
1081.10 0.04978
1081.20 0.04976
1081.30 0.04974
1081.40 0.04972
1081.50 0.04971
1081.60 0.04969
1081.70 0.04967
1081.80 0.04965
1081.90 0.04963
1082.00 0.04961
1082.10 0.04959
1082.20 0.04957
1082.30 0.04955
1082.40 0.04953
1082.50 0.04951
1082.60 0.04949
1082.70 0.04947
1082.80 0.04945
1082.90 0.04943
1083.00 0.04941
1083.10 0.04939
1083.20 0.04937
1083.30 0.04935
1083.40 0.04933
1083.50 0.04931
1083.60 0.04929
1083.70 0.04927
1083.80 0.04925
1083.90 0.04923
1084.00 0.04921
1084.10 0.0492
1084.20 0.04918
1084.30 0.04916
1084.40 0.04914
1084.50 0.04912
1084.60 0.0491
1084.70 0.04908
1084.80 0.04906
1084.90 0.04904
1085.00 0.04902
1085.10 0.049
1085.20 0.04898
1085.30 0.04896
1085.40 0.04894
1085.50 0.04892
1085.60 0.0489
1085.70 0.04888
1085.80 0.04886
1085.90 0.04884
1086.00 0.04882
1086.10 0.0488
1086.20 0.04878
1086.30 0.04876
1086.40 0.04874
1086.50 0.04872
1086.60 0.0487
1086.70 0.04868
1086.80 0.04866
1086.90 0.04864
1087.00 0.04862
1087.10 0.0486
1087.20 0.04858
1087.30 0.04856
1087.40 0.04854
1087.50 0.04852
1087.60 0.0485
1087.70 0.04849
1087.80 0.04847
1087.90 0.04845
1088.00 0.04843
1088.10 0.04841
1088.20 0.04839
1088.30 0.04837
1088.40 0.04835
1088.50 0.04833
1088.60 0.04831
1088.70 0.04829
1088.80 0.04827
1088.90 0.04826
1089.00 0.04824
1089.10 0.04822
1089.20 0.0482
1089.30 0.04818
1089.40 0.04816
1089.50 0.04814
1089.60 0.04813
1089.70 0.04811
1089.80 0.04809
1089.90 0.04807
1090.00 0.04805
1090.10 0.04803
1090.20 0.04802
1090.30 0.048
1090.40 0.04798
1090.50 0.04796
1090.60 0.04794
1090.70 0.04793
1090.80 0.04791
1090.90 0.0479
1091.00 0.04788
1091.10 0.04787
1091.20 0.04785
1091.30 0.04783
1091.40 0.04782
1091.50 0.0478
1091.60 0.04779
1091.70 0.04777
1091.80 0.04775
1091.90 0.04774
1092.00 0.04772
1092.10 0.04771
1092.20 0.0477
1092.30 0.04768
1092.40 0.04767
1092.50 0.04766
1092.60 0.04765
1092.70 0.04763
1092.80 0.04762
1092.90 0.04761
1093.00 0.0476
1093.10 0.04759
1093.20 0.04758
1093.30 0.04758
1093.40 0.04758
1093.50 0.04758
1093.60 0.0476
1093.70 0.04761
1093.80 0.0476
1093.90 0.04759
1094.00 0.04754
1094.10 0.0475
1094.20 0.04745
1094.30 0.04741
1094.40 0.04739
1094.50 0.04736
1094.60 0.04734
1094.70 0.04731
1094.80 0.04729
1094.90 0.04726
1095.00 0.04724
1095.10 0.04722
1095.20 0.0472
1095.30 0.04718
1095.40 0.04716
1095.50 0.04714
1095.60 0.04712
1095.70 0.04711
1095.80 0.04709
1095.90 0.04707
1096.00 0.04705
1096.10 0.04703
1096.20 0.04701
1096.30 0.04699
1096.40 0.04697
1096.50 0.04695
1096.60 0.04693
1096.70 0.04692
1096.80 0.0469
1096.90 0.04688
1097.00 0.04687
1097.10 0.04685
1097.20 0.04683
1097.30 0.04682
1097.40 0.0468
1097.50 0.04679
1097.60 0.04677
1097.70 0.04676
1097.80 0.04674
1097.90 0.04672
1098.00 0.04671
1098.10 0.04669
1098.20 0.04668
1098.30 0.04666
1098.40 0.04665
1098.50 0.04663
1098.60 0.04662
1098.70 0.0466
1098.80 0.04659
1098.90 0.04657
1099.00 0.04656
1099.10 0.04654
1099.20 0.04653
1099.30 0.04651
1099.40 0.0465
1099.50 0.04648
1099.60 0.04647
1099.70 0.04646
1099.80 0.04644
1099.90 0.04643
1100.00 0.04641
1100.10 0.0464
1100.20 0.04638
1100.30 0.04637
1100.40 0.04635
1100.50 0.04634
1100.60 0.04633
1100.70 0.04631
1100.80 0.0463
1100.90 0.04628
1101.00 0.04627
1101.10 0.04625
1101.20 0.04624
1101.30 0.04623
1101.40 0.04621
1101.50 0.0462
1101.60 0.04618
1101.70 0.04617
1101.80 0.04615
1101.90 0.04614
1102.00 0.04613
1102.10 0.04611
1102.20 0.0461
1102.30 0.04608
1102.40 0.04607
1102.50 0.04605
1102.60 0.04604
1102.70 0.04603
1102.80 0.04601
1102.90 0.046
1103.00 0.04598
1103.10 0.04597
1103.20 0.04595
1103.30 0.04594
1103.40 0.04593
1103.50 0.04591
1103.60 0.0459
1103.70 0.04588
1103.80 0.04587
1103.90 0.04585
1104.00 0.04584
1104.10 0.04582
1104.20 0.04581
1104.30 0.04579
1104.40 0.04578
1104.50 0.04577
1104.60 0.04575
1104.70 0.04574
1104.80 0.04572
1104.90 0.04571
1105.00 0.04569
1105.10 0.04568
1105.20 0.04566
1105.30 0.04565
1105.40 0.04564
1105.50 0.04562
1105.60 0.04561
1105.70 0.04559
1105.80 0.04558
1105.90 0.04556
1106.00 0.04555
1106.10 0.04553
1106.20 0.04552
1106.30 0.0455
1106.40 0.04549
1106.50 0.04547
1106.60 0.04546
1106.70 0.04544
1106.80 0.04543
1106.90 0.04541
1107.00 0.0454
1107.10 0.04538
1107.20 0.04537
1107.30 0.04536
1107.40 0.04534
1107.50 0.04533
1107.60 0.04531
1107.70 0.0453
1107.80 0.04528
1107.90 0.04527
1108.00 0.04525
1108.10 0.04524
1108.20 0.04522
1108.30 0.04521
1108.40 0.04519
1108.50 0.04518
1108.60 0.04516
1108.70 0.04515
1108.80 0.04513
1108.90 0.04512
1109.00 0.0451
1109.10 0.04509
1109.20 0.04507
1109.30 0.04506
1109.40 0.04504
1109.50 0.04503
1109.60 0.04501
1109.70 0.045
1109.80 0.04498
1109.90 0.04497
1110.00 0.04495
1110.10 0.04494
1110.20 0.04492
1110.30 0.04491
1110.40 0.04489
1110.50 0.04488
1110.60 0.04486
1110.70 0.04485
1110.80 0.04483
1110.90 0.04482
1111.00 0.0448
1111.10 0.04479
1111.20 0.04477
1111.30 0.04476
1111.40 0.04474
1111.50 0.04473
1111.60 0.04471
1111.70 0.0447
1111.80 0.04468
1111.90 0.04467
1112.00 0.04465
1112.10 0.04464
1112.20 0.04462
1112.30 0.04461
1112.40 0.04459
1112.50 0.04458
1112.60 0.04456
1112.70 0.04455
1112.80 0.04453
1112.90 0.04452
1113.00 0.0445
1113.10 0.04449
1113.20 0.04447
1113.30 0.04446
1113.40 0.04444
1113.50 0.04443
1113.60 0.04441
1113.70 0.04439
1113.80 0.04438
1113.90 0.04436
1114.00 0.04435
1114.10 0.04433
1114.20 0.04432
1114.30 0.0443
1114.40 0.04429
1114.50 0.04427
1114.60 0.04426
1114.70 0.04424
1114.80 0.04423
1114.90 0.04421
1115.00 0.0442
1115.10 0.04418
1115.20 0.04417
1115.30 0.04415
1115.40 0.04414
1115.50 0.04412
1115.60 0.04411
1115.70 0.04409
1115.80 0.04408
1115.90 0.04406
1116.00 0.04405
1116.10 0.04403
1116.20 0.04402
1116.30 0.044
1116.40 0.04399
1116.50 0.04397
1116.60 0.04396
1116.70 0.04394
1116.80 0.04393
1116.90 0.04391
1117.00 0.0439
1117.10 0.04388
1117.20 0.04387
1117.30 0.04385
1117.40 0.04384
1117.50 0.04382
1117.60 0.04381
1117.70 0.04379
1117.80 0.04378
1117.90 0.04376
1118.00 0.04375
1118.10 0.04373
1118.20 0.04372
1118.30 0.0437
1118.40 0.04369
1118.50 0.04367
1118.60 0.04366
1118.70 0.04364
1118.80 0.04363
1118.90 0.04361
1119.00 0.0436
1119.10 0.04358
1119.20 0.04357
1119.30 0.04355
1119.40 0.04354
1119.50 0.04352
1119.60 0.04351
1119.70 0.04349
1119.80 0.04348
1119.90 0.04346
1120.00 0.04345
1120.10 0.04343
1120.20 0.04342
1120.30 0.0434
1120.40 0.04339
1120.50 0.04337
1120.60 0.04336
1120.70 0.04334
1120.80 0.04333
1120.90 0.04331
1121.00 0.0433
1121.10 0.04328
1121.20 0.04327
1121.30 0.04325
1121.40 0.04324
1121.50 0.04322
1121.60 0.04321
1121.70 0.04319
1121.80 0.04318
1121.90 0.04316
1122.00 0.04315
1122.10 0.04313
1122.20 0.04312
1122.30 0.0431
1122.40 0.04309
1122.50 0.04308
1122.60 0.04306
1122.70 0.04305
1122.80 0.04303
1122.90 0.04302
1123.00 0.043
1123.10 0.04299
1123.20 0.04297
1123.30 0.04296
1123.40 0.04294
1123.50 0.04293
1123.60 0.04291
1123.70 0.0429
1123.80 0.04288
1123.90 0.04287
1124.00 0.04285
1124.10 0.04284
1124.20 0.04282
1124.30 0.04281
1124.40 0.04279
1124.50 0.04278
1124.60 0.04276
1124.70 0.04275
1124.80 0.04274
1124.90 0.04272
1125.00 0.04271
1125.10 0.04269
1125.20 0.04268
1125.30 0.04266
1125.40 0.04265
1125.50 0.04263
1125.60 0.04262
1125.70 0.0426
1125.80 0.04259
1125.90 0.04257
1126.00 0.04256
1126.10 0.04254
1126.20 0.04253
1126.30 0.04251
1126.40 0.0425
1126.50 0.04249
1126.60 0.04247
1126.70 0.04246
1126.80 0.04244
1126.90 0.04243
1127.00 0.04241
1127.10 0.0424
1127.20 0.04238
1127.30 0.04237
1127.40 0.04235
1127.50 0.04234
1127.60 0.04232
1127.70 0.04231
1127.80 0.0423
1127.90 0.04228
1128.00 0.04227
1128.10 0.04225
1128.20 0.04224
1128.30 0.04222
1128.40 0.04221
1128.50 0.04219
1128.60 0.04218
1128.70 0.04216
1128.80 0.04215
1128.90 0.04214
1129.00 0.04212
1129.10 0.04211
1129.20 0.04209
1129.30 0.04208
1129.40 0.04206
1129.50 0.04205
1129.60 0.04203
1129.70 0.04202
1129.80 0.04201
1129.90 0.04199
1130.00 0.04198
1130.10 0.04196
1130.20 0.04195
1130.30 0.04193
1130.40 0.04192
1130.50 0.0419
1130.60 0.04189
1130.70 0.04187
1130.80 0.04186
1130.90 0.04185
1131.00 0.04183
1131.10 0.04182
1131.20 0.0418
1131.30 0.04179
1131.40 0.04177
1131.50 0.04176
1131.60 0.04175
1131.70 0.04173
1131.80 0.04172
1131.90 0.0417
1132.00 0.04169
1132.10 0.04167
1132.20 0.04166
1132.30 0.04164
1132.40 0.04163
1132.50 0.04162
1132.60 0.0416
1132.70 0.04159
1132.80 0.04157
1132.90 0.04156
1133.00 0.04154
1133.10 0.04153
1133.20 0.04152
1133.30 0.0415
1133.40 0.04149
1133.50 0.04147
1133.60 0.04146
1133.70 0.04144
1133.80 0.04143
1133.90 0.04142
1134.00 0.0414
1134.10 0.04139
1134.20 0.04137
1134.30 0.04136
1134.40 0.04135
1134.50 0.04133
1134.60 0.04132
1134.70 0.0413
1134.80 0.04129
1134.90 0.04127
1135.00 0.04126
1135.10 0.04125
1135.20 0.04123
1135.30 0.04122
1135.40 0.0412
1135.50 0.04119
1135.60 0.04118
1135.70 0.04116
1135.80 0.04115
1135.90 0.04113
1136.00 0.04112
1136.10 0.0411
1136.20 0.04109
1136.30 0.04108
1136.40 0.04106
1136.50 0.04105
1136.60 0.04103
1136.70 0.04102
1136.80 0.04101
1136.90 0.04099
1137.00 0.04098
1137.10 0.04096
1137.20 0.04095
1137.30 0.04094
1137.40 0.04092
1137.50 0.04091
1137.60 0.04089
1137.70 0.04088
1137.80 0.04087
1137.90 0.04085
1138.00 0.04084
1138.10 0.04082
1138.20 0.04081
1138.30 0.0408
1138.40 0.04078
1138.50 0.04077
1138.60 0.04075
1138.70 0.04074
1138.80 0.04073
1138.90 0.04071
1139.00 0.0407
1139.10 0.04068
1139.20 0.04067
1139.30 0.04066
1139.40 0.04064
1139.50 0.04063
1139.60 0.04061
1139.70 0.0406
1139.80 0.04059
1139.90 0.04057
1140.00 0.04056
1140.10 0.04054
1140.20 0.04053
1140.30 0.04052
1140.40 0.0405
1140.50 0.04049
1140.60 0.04047
1140.70 0.04046
1140.80 0.04045
1140.90 0.04043
1141.00 0.04042
1141.10 0.04041
1141.20 0.04039
1141.30 0.04038
1141.40 0.04036
1141.50 0.04035
1141.60 0.04034
1141.70 0.04032
1141.80 0.04031
1141.90 0.04029
1142.00 0.04028
1142.10 0.04027
1142.20 0.04025
1142.30 0.04024
1142.40 0.04023
1142.50 0.04021
1142.60 0.0402
1142.70 0.04018
1142.80 0.04017
1142.90 0.04016
1143.00 0.04014
1143.10 0.04013
1143.20 0.04012
1143.30 0.0401
1143.40 0.04009
1143.50 0.04008
1143.60 0.04006
1143.70 0.04005
1143.80 0.04003
1143.90 0.04002
1144.00 0.04001
1144.10 0.03999
1144.20 0.03998
1144.30 0.03997
1144.40 0.03995
1144.50 0.03994
1144.60 0.03993
1144.70 0.03991
1144.80 0.0399
1144.90 0.03988
1145.00 0.03987
1145.10 0.03986
1145.20 0.03984
1145.30 0.03983
1145.40 0.03982
1145.50 0.0398
1145.60 0.03979
1145.70 0.03978
1145.80 0.03976
1145.90 0.03975
1146.00 0.03973
1146.10 0.03972
1146.20 0.03971
1146.30 0.03969
1146.40 0.03968
1146.50 0.03967
1146.60 0.03965
1146.70 0.03964
1146.80 0.03963
1146.90 0.03961
1147.00 0.0396
1147.10 0.03959
1147.20 0.03957
1147.30 0.03956
1147.40 0.03955
1147.50 0.03953
1147.60 0.03952
1147.70 0.0395
1147.80 0.03949
1147.90 0.03948
1148.00 0.03946
1148.10 0.03945
1148.20 0.03944
1148.30 0.03942
1148.40 0.03941
1148.50 0.0394
1148.60 0.03938
1148.70 0.03937
1148.80 0.03936
1148.90 0.03934
1149.00 0.03933
1149.10 0.03932
1149.20 0.0393
1149.30 0.03929
1149.40 0.03928
1149.50 0.03926
1149.60 0.03925
1149.70 0.03924
1149.80 0.03922
1149.90 0.03921
1150.00 0.0392
1150.10 0.03918
1150.20 0.03917
1150.30 0.03916
1150.40 0.03914
1150.50 0.03913
1150.60 0.03912
1150.70 0.0391
1150.80 0.03909
1150.90 0.03908
1151.00 0.03906
1151.10 0.03905
1151.20 0.03904
1151.30 0.03902
1151.40 0.03901
1151.50 0.039
1151.60 0.03898
1151.70 0.03897
1151.80 0.03896
1151.90 0.03894
1152.00 0.03893
1152.10 0.03892
1152.20 0.0389
1152.30 0.03889
1152.40 0.03888
1152.50 0.03887
1152.60 0.03885
1152.70 0.03884
1152.80 0.03883
1152.90 0.03881
1153.00 0.0388
1153.10 0.03879
1153.20 0.03877
1153.30 0.03876
1153.40 0.03875
1153.50 0.03873
1153.60 0.03872
1153.70 0.03871
1153.80 0.03869
1153.90 0.03868
1154.00 0.03867
1154.10 0.03866
1154.20 0.03864
1154.30 0.03863
1154.40 0.03862
1154.50 0.0386
1154.60 0.03859
1154.70 0.03858
1154.80 0.03856
1154.90 0.03855
1155.00 0.03854
1155.10 0.03852
1155.20 0.03851
1155.30 0.0385
1155.40 0.03849
1155.50 0.03847
1155.60 0.03846
1155.70 0.03845
1155.80 0.03843
1155.90 0.03842
1156.00 0.03841
1156.10 0.03839
1156.20 0.03838
1156.30 0.03837
1156.40 0.03836
1156.50 0.03834
1156.60 0.03833
1156.70 0.03832
1156.80 0.0383
1156.90 0.03829
1157.00 0.03828
1157.10 0.03826
1157.20 0.03825
1157.30 0.03824
1157.40 0.03823
1157.50 0.03821
1157.60 0.0382
1157.70 0.03819
1157.80 0.03817
1157.90 0.03816
1158.00 0.03815
1158.10 0.03814
1158.20 0.03812
1158.30 0.03811
1158.40 0.0381
1158.50 0.03808
1158.60 0.03807
1158.70 0.03806
1158.80 0.03805
1158.90 0.03803
1159.00 0.03802
1159.10 0.03801
1159.20 0.03799
1159.30 0.03798
1159.40 0.03797
1159.50 0.03796
1159.60 0.03794
1159.70 0.03793
1159.80 0.03792
1159.90 0.0379
1160.00 0.03789
1160.10 0.03788
1160.20 0.03787
1160.30 0.03785
1160.40 0.03784
1160.50 0.03783
1160.60 0.03782
1160.70 0.0378
1160.80 0.03779
1160.90 0.03778
1161.00 0.03776
1161.10 0.03775
1161.20 0.03774
1161.30 0.03773
1161.40 0.03771
1161.50 0.0377
1161.60 0.03769
1161.70 0.03768
1161.80 0.03766
1161.90 0.03765
1162.00 0.03764
1162.10 0.03762
1162.20 0.03761
1162.30 0.0376
1162.40 0.03759
1162.50 0.03757
1162.60 0.03756
1162.70 0.03755
1162.80 0.03754
1162.90 0.03752
1163.00 0.03751
1163.10 0.0375
1163.20 0.03749
1163.30 0.03747
1163.40 0.03746
1163.50 0.03745
1163.60 0.03744
1163.70 0.03742
1163.80 0.03741
1163.90 0.0374
1164.00 0.03738
1164.10 0.03737
1164.20 0.03736
1164.30 0.03735
1164.40 0.03733
1164.50 0.03732
1164.60 0.03731
1164.70 0.0373
1164.80 0.03728
1164.90 0.03727
1165.00 0.03726
1165.10 0.03725
1165.20 0.03723
1165.30 0.03722
1165.40 0.03721
1165.50 0.0372
1165.60 0.03718
1165.70 0.03717
1165.80 0.03716
1165.90 0.03715
1166.00 0.03713
1166.10 0.03712
1166.20 0.03711
1166.30 0.0371
1166.40 0.03708
1166.50 0.03707
1166.60 0.03706
1166.70 0.03705
1166.80 0.03703
1166.90 0.03702
1167.00 0.03701
1167.10 0.037
1167.20 0.03698
1167.30 0.03697
1167.40 0.03696
1167.50 0.03695
1167.60 0.03694
1167.70 0.03692
1167.80 0.03691
1167.90 0.0369
1168.00 0.03689
1168.10 0.03687
1168.20 0.03686
1168.30 0.03685
1168.40 0.03684
1168.50 0.03682
1168.60 0.03681
1168.70 0.0368
1168.80 0.03679
1168.90 0.03678
1169.00 0.03676
1169.10 0.03675
1169.20 0.03674
1169.30 0.03673
1169.40 0.03671
1169.50 0.0367
1169.60 0.03669
1169.70 0.03668
1169.80 0.03666
1169.90 0.03665
1170.00 0.03664
1170.10 0.03663
1170.20 0.03662
1170.30 0.0366
1170.40 0.03659
1170.50 0.03658
1170.60 0.03657
1170.70 0.03655
1170.80 0.03654
1170.90 0.03653
1171.00 0.03652
1171.10 0.03651
1171.20 0.03649
1171.30 0.03648
1171.40 0.03647
1171.50 0.03646
1171.60 0.03644
1171.70 0.03643
1171.80 0.03642
1171.90 0.03641
1172.00 0.0364
1172.10 0.03638
1172.20 0.03637
1172.30 0.03636
1172.40 0.03635
1172.50 0.03633
1172.60 0.03632
1172.70 0.03631
1172.80 0.0363
1172.90 0.03629
1173.00 0.03627
1173.10 0.03626
1173.20 0.03625
1173.30 0.03624
1173.40 0.03623
1173.50 0.03621
1173.60 0.0362
1173.70 0.03619
1173.80 0.03618
1173.90 0.03617
1174.00 0.03615
1174.10 0.03614
1174.20 0.03613
1174.30 0.03612
1174.40 0.03611
1174.50 0.03609
1174.60 0.03608
1174.70 0.03607
1174.80 0.03606
1174.90 0.03605
1175.00 0.03603
1175.10 0.03602
1175.20 0.03601
1175.30 0.036
1175.40 0.03599
1175.50 0.03597
1175.60 0.03596
1175.70 0.03595
1175.80 0.03594
1175.90 0.03593
1176.00 0.03591
1176.10 0.0359
1176.20 0.03589
1176.30 0.03588
1176.40 0.03587
1176.50 0.03585
1176.60 0.03584
1176.70 0.03583
1176.80 0.03582
1176.90 0.03581
1177.00 0.03579
1177.10 0.03578
1177.20 0.03577
1177.30 0.03576
1177.40 0.03575
1177.50 0.03573
1177.60 0.03572
1177.70 0.03571
1177.80 0.0357
1177.90 0.03569
1178.00 0.03568
1178.10 0.03566
1178.20 0.03565
1178.30 0.03564
1178.40 0.03563
1178.50 0.03562
1178.60 0.0356
1178.70 0.03559
1178.80 0.03558
1178.90 0.03557
1179.00 0.03556
1179.10 0.03555
1179.20 0.03553
1179.30 0.03552
1179.40 0.03551
1179.50 0.0355
1179.60 0.03549
1179.70 0.03547
1179.80 0.03546
1179.90 0.03545
1180.00 0.03544
1180.10 0.03543
1180.20 0.03542
1180.30 0.0354
1180.40 0.03539
1180.50 0.03538
1180.60 0.03537
1180.70 0.03536
1180.80 0.03535
1180.90 0.03533
1181.00 0.03532
1181.10 0.03531
1181.20 0.0353
1181.30 0.03529
1181.40 0.03527
1181.50 0.03526
1181.60 0.03525
1181.70 0.03524
1181.80 0.03523
1181.90 0.03522
1182.00 0.0352
1182.10 0.03519
1182.20 0.03518
1182.30 0.03517
1182.40 0.03516
1182.50 0.03515
1182.60 0.03513
1182.70 0.03512
1182.80 0.03511
1182.90 0.0351
1183.00 0.03509
1183.10 0.03508
1183.20 0.03507
1183.30 0.03505
1183.40 0.03504
1183.50 0.03503
1183.60 0.03502
1183.70 0.03501
1183.80 0.035
1183.90 0.03498
1184.00 0.03497
1184.10 0.03496
1184.20 0.03495
1184.30 0.03494
1184.40 0.03493
1184.50 0.03492
1184.60 0.0349
1184.70 0.03489
1184.80 0.03488
1184.90 0.03487
1185.00 0.03486
1185.10 0.03485
1185.20 0.03483
1185.30 0.03482
1185.40 0.03481
1185.50 0.0348
1185.60 0.03479
1185.70 0.03478
1185.80 0.03477
1185.90 0.03475
1186.00 0.03474
1186.10 0.03473
1186.20 0.03472
1186.30 0.03471
1186.40 0.0347
1186.50 0.03468
1186.60 0.03467
1186.70 0.03466
1186.80 0.03465
1186.90 0.03464
1187.00 0.03463
1187.10 0.03462
1187.20 0.0346
1187.30 0.03459
1187.40 0.03458
1187.50 0.03457
1187.60 0.03456
1187.70 0.03455
1187.80 0.03454
1187.90 0.03453
1188.00 0.03451
1188.10 0.0345
1188.20 0.03449
1188.30 0.03448
1188.40 0.03447
1188.50 0.03446
1188.60 0.03445
1188.70 0.03443
1188.80 0.03442
1188.90 0.03441
1189.00 0.0344
1189.10 0.03439
1189.20 0.03438
1189.30 0.03437
1189.40 0.03436
1189.50 0.03434
1189.60 0.03433
1189.70 0.03432
1189.80 0.03431
1189.90 0.0343
1190.00 0.03429
1190.10 0.03428
1190.20 0.03426
1190.30 0.03425
1190.40 0.03424
1190.50 0.03423
1190.60 0.03422
1190.70 0.03421
1190.80 0.0342
1190.90 0.03419
1191.00 0.03417
1191.10 0.03416
1191.20 0.03415
1191.30 0.03414
1191.40 0.03413
1191.50 0.03412
1191.60 0.03411
1191.70 0.0341
1191.80 0.03408
1191.90 0.03407
1192.00 0.03406
1192.10 0.03405
1192.20 0.03404
1192.30 0.03403
1192.40 0.03402
1192.50 0.03401
1192.60 0.034
1192.70 0.03398
1192.80 0.03397
1192.90 0.03396
1193.00 0.03395
1193.10 0.03394
1193.20 0.03393
1193.30 0.03392
1193.40 0.03391
1193.50 0.0339
1193.60 0.03388
1193.70 0.03387
1193.80 0.03386
1193.90 0.03385
1194.00 0.03384
1194.10 0.03383
1194.20 0.03382
1194.30 0.03381
1194.40 0.0338
1194.50 0.03378
1194.60 0.03377
1194.70 0.03376
1194.80 0.03375
1194.90 0.03374
1195.00 0.03373
1195.10 0.03372
1195.20 0.03371
1195.30 0.0337
1195.40 0.03368
1195.50 0.03367
1195.60 0.03366
1195.70 0.03365
1195.80 0.03364
1195.90 0.03363
1196.00 0.03362
1196.10 0.03361
1196.20 0.0336
1196.30 0.03359
1196.40 0.03357
1196.50 0.03356
1196.60 0.03355
1196.70 0.03354
1196.80 0.03353
1196.90 0.03352
1197.00 0.03351
1197.10 0.0335
1197.20 0.03349
1197.30 0.03348
1197.40 0.03346
1197.50 0.03345
1197.60 0.03344
1197.70 0.03343
1197.80 0.03342
1197.90 0.03341
1198.00 0.0334
1198.10 0.03339
1198.20 0.03338
1198.30 0.03337
1198.40 0.03336
1198.50 0.03334
1198.60 0.03333
1198.70 0.03332
1198.80 0.03331
1198.90 0.0333
1199.00 0.03329
1199.10 0.03328
1199.20 0.03327
1199.30 0.03326
1199.40 0.03325
1199.50 0.03324
1199.60 0.03323
1199.70 0.03321
1199.80 0.0332
1199.90 0.03319
1200.00 0
